time,ax,ay,az,am,gx,gy,gz,gm,velx,distx,button
1649428811.7723699,-0.00384521484375,0.005859375,0.99151611328125,0.9915408820865339,-0.3662109375,4.8828125,4.08935546875,6.1284889482720795,0,0,0
1649428811.7783995,-0.00384521484375,0.005859375,0.99151611328125,0.9915408820865339,1.5869140625,-3.7841796875,4.2724609375,4.875559187876348,0,0,0
1649428811.7843795,-0.00421142578125,0.0029296875,0.9931640625,0.9931773125768946,0.06103515625,2.74658203125,5.0048828125,4.423680587228291,0,0,0
1649428811.7903833,-0.00421142578125,0.0029296875,0.9931640625,0.9983321564132226,0.6103515625,4.45556640625,3.5400390625,10.731952299444263,0,0,0
1649428811.7964027,-0.00128173828125,0.00897216796875,0.998291015625,0.9983321564132226,-2.01416015625,-1.15966796875,3.2958984375,6.946487258750078,0,0,0
1649428811.8024468,0.0,0.01080322265625,0.99609375,0.9961523319296216,0.48828125,-1.5869140625,2.5634765625,6.919890280664098,0,0,0
1649428811.808462,0.0,0.01080322265625,0.99609375,0.9961523319296216,-0.1220703125,2.86865234375,6.2255859375,7.193090918050287,0,0,0
1649428811.814495,-0.00347900390625,0.00311279296875,0.99078369140625,0.9907946891787628,2.9296875,2.3193359375,6.28662109375,7.582374639660237,0,0,0
1649428811.8205245,-0.00347900390625,0.00311279296875,0.99078369140625,0.9907946891787628,1.64794921875,2.86865234375,4.0283203125,9.746915060231915,0,0,0
1649428811.8265476,-0.00347900390625,0.00311279296875,0.99078369140625,0.9907946891787628,1.46484375,-0.06103515625,5.79833984375,4.969776119585518,0,0,0
1649428811.8325284,0.003662109375,0.01007080078125,0.99554443359375,0.995602104925934,-1.46484375,-4.45556640625,-0.18310546875,4.47766818626861,0,0,0
1649428811.8385365,0.003662109375,0.01007080078125,0.99554443359375,0.995602104925934,4.69970703125,5.67626953125,-5.18798828125,9.824574883075002,0,0,0
1649428811.8445299,0.003662109375,0.01007080078125,0.99554443359375,0.995602104925934,5.2490234375,-2.685546875,-1.15966796875,5.430414164925592,0,0,0
1649428811.8505237,-0.009521484375,0.00531005859375,0.99444580078125,0.9945055585960463,1.953125,-2.38037109375,1.03759765625,1.4686534931049762,0,0,0
1649428811.856514,-0.009521484375,0.00531005859375,0.99444580078125,0.9945055585960463,-8.30078125,2.9296875,-5.06591796875,8.944305962983915,0,0,0
1649428811.862534,-0.00897216796875,0.00897216796875,0.98822021484375,0.9883016708586232,2.5634765625,1.46484375,0.8544921875,5.501634636633284,0,0,0
1649428811.86856,-0.00897216796875,0.00897216796875,0.98822021484375,0.9883016708586232,0.54931640625,2.5634765625,2.86865234375,1.7370909998483528,0,0,0
1649428811.8745918,-0.0146484375,-0.0164794921875,0.98785400390625,0.988100037150874,0.732421875,2.0751953125,3.11279296875,1.5703955481284921,0,0,0
1649428811.8806207,-0.01190185546875,-0.02728271484375,0.9990234375,0.9994667725178065,2.3193359375,8.36181640625,5.126953125,16.102758497364405,0,0,0
1649428811.8866525,-0.01190185546875,-0.02728271484375,0.9990234375,0.9994667725178065,9.58251953125,-0.18310546875,9.21630859375,6.726616977732448,0,0,0
1649428811.892675,-0.0069580078125,-0.00494384765625,0.99884033203125,0.9988768014097958,-3.662109375,3.7841796875,7.32421875,3.4966273406744395,0,0,0
1649428811.898661,-0.0069580078125,-0.00494384765625,0.99884033203125,0.9988768014097958,-1.3427734375,4.150390625,10.009765625,5.488075442544916,0,0,0
1649428811.905001,-0.0098876953125,0.0128173828125,0.9873046875,0.987437389296267,-2.50244140625,1.5869140625,4.69970703125,3.8340573180027855,0,0,0
1649428811.9119754,-0.0040283203125,-0.0069580078125,0.985107421875,0.9851402305613491,0.0,-4.45556640625,-5.92041015625,3.8340573180027855,0,0,0
1649428811.918157,-0.0040283203125,-0.0069580078125,0.985107421875,0.9851402305613491,-0.54931640625,0.3662109375,-2.44140625,8.744231434261721,0,0,0
1649428811.92418,0.0018310546875,-0.0098876953125,0.99609375,0.9961445066198599,0.67138671875,-1.89208984375,4.2724609375,9.3401738853932,0,0,0
1649428811.9301896,-0.0047607421875,0.000732421875,0.999755859375,0.9997674626945126,4.82177734375,-0.9765625,-2.685546875,2.891288887286868,0,0,0
1649428811.9361913,-0.0047607421875,0.000732421875,0.999755859375,0.9997674626945126,0.3662109375,0.91552734375,-4.150390625,5.823982157209595,0,0,0
1649428811.9421916,-0.005859375,-0.00091552734375,0.99481201171875,0.9948296885023156,-2.0751953125,-2.74658203125,0.67138671875,6.1318312910888295,0,0,0
1649428811.9481838,-0.005859375,-0.00091552734375,0.99481201171875,0.9948296885023156,3.2958984375,-2.8076171875,-0.8544921875,3.502482113135638,0,0,0
1649428811.9541862,-0.0098876953125,-0.00677490234375,0.988037109375,0.9881098093443187,3.23486328125,1.77001953125,-2.38037109375,15.925848946931556,0,0,0
1649428811.9601815,-0.00860595703125,-0.00567626953125,0.99114990234375,0.9912035166645851,-1.40380859375,-7.14111328125,-4.0283203125,6.041555622878088,0,0,0
1649428811.9662154,-0.00860595703125,-0.00567626953125,0.99114990234375,0.9912035166645851,6.591796875,-2.50244140625,-0.67138671875,10.459830341622562,0,0,0
1649428811.972239,-0.00860595703125,-0.00567626953125,0.99114990234375,0.9912035166645851,-1.708984375,-1.953125,1.8310546875,1.0746348182164922,0,0,0
1649428811.9782286,-0.00860595703125,-0.00567626953125,0.99114990234375,0.9972004688732219,0.48828125,-3.5400390625,-1.28173828125,8.866918954689881,0,0,0
1649428811.9842205,-0.003662109375,0.00164794921875,0.9971923828125,0.9972004688732219,-1.15966796875,0.06103515625,-10.68115234375,10.053770519967477,0,0,0
1649428811.9902132,-0.003662109375,-0.00128173828125,0.9913330078125,0.991340600538823,-0.8544921875,0.3662109375,0.0,5.668717148926419,0,0,0
1649428811.9962363,-0.003662109375,-0.00128173828125,0.9913330078125,0.991340600538823,-1.40380859375,0.67138671875,-5.43212890625,7.904700764488285,0,0,0
1649428812.0022662,-0.00494384765625,0.0010986328125,0.99114990234375,0.9911628410809851,3.72314453125,-0.42724609375,-2.62451171875,7.515011704893254,0,0,0
1649428812.0082948,-0.00494384765625,0.0010986328125,0.99114990234375,0.9968388519489659,1.40380859375,2.74658203125,5.126953125,5.904343029754165,0,0,0
1649428812.0143342,-0.00494384765625,0.00091552734375,0.996826171875,0.9968388519489659,0.8544921875,-0.79345703125,-2.25830078125,1.6205954647646184,0,0,0
1649428812.0203755,-0.0062255859375,0.00384521484375,0.99664306640625,0.9966699280168498,0.67138671875,-1.52587890625,4.33349609375,5.783221965270836,0,0,0
1649428812.0265472,-0.0062255859375,0.00384521484375,0.99664306640625,0.9966699280168498,4.45556640625,0.8544921875,-2.5634765625,8.119970011796683,0,0,0
1649428812.032931,-0.00732421875,0.00054931640625,0.99444580078125,0.9944729240257241,-1.46484375,7.38525390625,1.3427734375,4.9772663666687285,0,0,0
1649428812.0393157,-0.002197265625,0.00018310546875,0.99334716796875,0.993349614997346,3.0517578125,-2.25830078125,-1.953125,3.543720304442086,0,0,0
1649428812.045685,-0.002197265625,0.00018310546875,0.99334716796875,0.993349614997346,2.197265625,1.3427734375,0.732421875,4.341226050313301,0,0,0
1649428812.0520887,-0.002197265625,0.00018310546875,0.99334716796875,0.993349614997346,4.94384765625,3.84521484375,-3.90625,6.648631038157334,0,0,0
1649428812.0584564,-0.002197265625,0.00018310546875,0.99334716796875,0.993349614997346,0.0,-3.2958984375,0.42724609375,3.901478714476779,0,0,0
1649428812.064847,-0.002197265625,0.00018310546875,0.99334716796875,0.993349614997346,0.48828125,0.67138671875,-9.09423828125,2.242574837753154,0,0,0
1649428812.0712187,-0.00274658203125,0.0032958984375,0.99664306640625,0.996652300692181,1.64794921875,1.03759765625,-5.67626953125,8.685240540915105,0,0,0
1649428812.0776293,-0.00274658203125,0.0032958984375,0.99664306640625,0.9948358896255617,3.23486328125,-1.89208984375,-1.708984375,5.978330462883731,0,0,0
1649428812.0840175,0.00201416015625,0.006591796875,0.99481201171875,0.9948358896255617,-2.01416015625,-1.89208984375,-2.3193359375,5.248313678394937,0,0,0
1649428812.0904262,-0.00439453125,0.00494384765625,0.9942626953125,0.9942846980742651,-1.953125,3.23486328125,-9.033203125,7.79268613221575,0,0,0
1649428812.0967863,-0.00439453125,0.00494384765625,0.9942626953125,0.9942846980742651,-6.04248046875,-1.953125,-11.16943359375,2.516543960948279,0,0,0
1649428812.1031861,-0.00091552734375,0.017578125,0.99444580078125,0.9946015681469109,6.89697265625,5.18798828125,7.14111328125,3.84182250533599,0,0,0
1649428812.110236,-0.01519775390625,-0.01318359375,0.99554443359375,0.995747708070403,-0.91552734375,-1.0986328125,1.46484375,4.401730891626658,0,0,0
1649428812.1166632,-0.01519775390625,-0.01318359375,0.99554443359375,0.995747708070403,-2.13623046875,6.04248046875,2.01416015625,6.494152097763597,0,0,0
1649428812.1230555,-0.003662109375,-0.00732421875,0.9935302734375,0.9935640188041059,-1.52587890625,-3.11279296875,2.44140625,7.650118338224361,0,0,0
1649428812.1297252,0.00054931640625,0.01190185546875,0.99151611328125,0.9915876959747281,-1.3427734375,-3.72314453125,-6.103515625,5.420801589642216,0,0,0
1649428812.136361,0.00054931640625,0.01190185546875,0.99151611328125,0.9915876959747281,3.7841796875,4.45556640625,8.23974609375,4.664699415108763,0,0,0
1649428812.142936,-0.00054931640625,0.01226806640625,0.9913330078125,0.9914090677316001,1.89208984375,1.220703125,1.953125,14.209660779446292,0,0,0
1649428812.1494582,-0.0069580078125,0.00457763671875,0.993896484375,0.9939313810739815,-3.84521484375,0.30517578125,4.08935546875,5.766126595364741,0,0,0
1649428812.1560373,-0.0069580078125,0.00457763671875,0.993896484375,0.9939313810739815,-1.953125,-1.0986328125,5.2490234375,5.535387312993485,0,0,0
1649428812.1632967,-0.009521484375,-0.01739501953125,0.99609375,0.9962911241992767,-1.708984375,1.77001953125,-2.3193359375,9.198303825090091,0,0,0
1649428812.1698816,-0.0040283203125,-0.01043701171875,0.99755859375,0.9976213242220893,-0.54931640625,3.173828125,0.0,3.1443473809548967,0,0,0
1649428812.1765041,-0.0040283203125,-0.01043701171875,0.99755859375,0.9976213242220893,0.0,2.13623046875,-2.86865234375,4.880141481357586,0,0,0
1649428812.183045,-0.0040283203125,-0.01043701171875,0.99755859375,0.9976213242220893,7.32421875,5.7373046875,-2.25830078125,7.186095888399977,0,0,0
1649428812.1895742,-0.005126953125,0.00494384765625,0.9931640625,0.9931896003883136,-0.91552734375,1.708984375,5.06591796875,6.421757049591131,0,0,0
1649428812.1961565,-0.005126953125,0.00494384765625,0.9931640625,0.9931896003883136,3.60107421875,1.52587890625,-14.6484375,9.279953438975008,0,0,0
1649428812.202699,-0.005126953125,0.0069580078125,0.99481201171875,0.9948495555514769,0.1220703125,-4.21142578125,2.01416015625,9.174580878369701,0,0,0
1649428812.2092252,-0.000732421875,0.010986328125,0.99517822265625,0.9952391324182976,-3.5400390625,-2.86865234375,-11.65771484375,3.8033277835242667,0,0,0
1649428812.215813,-0.000732421875,0.010986328125,0.99517822265625,0.9952391324182976,1.64794921875,1.77001953125,-2.38037109375,6.763069886117944,0,0,0
1649428812.2223437,-0.00439453125,0.000732421875,0.99298095703125,0.9929909513048986,2.01416015625,2.50244140625,5.43212890625,6.931455040557019,0,0,0
1649428812.2299318,-0.01043701171875,-0.02435302734375,0.9935302734375,0.9938834968904636,2.62451171875,2.62451171875,8.23974609375,8.280561166581043,0,0,0
1649428812.2366967,-0.01043701171875,-0.02435302734375,0.9935302734375,0.9937283929689074,-5.55419921875,-1.03759765625,2.99072265625,5.004138425969148,0,0,0
1649428812.2432606,-0.00421142578125,0.00347900390625,0.99371337890625,0.9937283929689074,4.45556640625,1.0986328125,3.60107421875,7.167409100629724,0,0,0
1649428812.2498221,-0.0003662109375,0.01336669921875,0.9942626953125,0.9943526085089396,5.55419921875,3.47900390625,-0.91552734375,9.023712946663393,0,0,0
1649428812.2564344,-0.0003662109375,0.01336669921875,0.9942626953125,0.9944287577675114,-7.080078125,5.79833984375,2.99072265625,10.843321096419443,0,0,0
1649428812.2629738,-0.00128173828125,0.01812744140625,0.9942626953125,0.9944287577675114,7.01904296875,6.591796875,6.103515625,9.757038155977162,0,0,0
1649428812.2695024,-0.00732421875,-0.01904296875,0.9927978515625,0.9930074787765836,-1.3427734375,-7.568359375,0.91552734375,11.278464546704951,0,0,0
1649428812.2760708,-0.00732421875,-0.01904296875,0.9927978515625,0.9930421534973651,-2.3193359375,1.953125,2.62451171875,5.479923822089272,0,0,0
1649428812.2828357,-0.005859375,-0.00933837890625,0.99298095703125,0.9930421534973651,-0.18310546875,0.79345703125,6.7138671875,8.347770979311099,0,0,0
1649428812.2895503,-0.0047607421875,-0.006591796875,0.99334716796875,0.9933804470411893,0.6103515625,-0.91552734375,1.0986328125,2.8699506702902218,0,0,0
1649428812.296114,-0.0047607421875,-0.006591796875,0.99334716796875,0.9948613003464419,1.28173828125,-0.9765625,4.8828125,6.966034124791874,0,0,0
1649428812.302648,-0.00823974609375,-0.0054931640625,0.99481201171875,0.9948613003464419,3.41796875,2.74658203125,2.62451171875,6.726616977732448,0,0,0
1649428812.3092043,-0.00640869140625,-0.00201416015625,0.993896484375,0.9939191867650308,4.82177734375,-0.9765625,5.615234375,7.1013558402800045,0,0,0
1649428812.3169653,-0.00640869140625,-0.00201416015625,0.993896484375,0.9924485321296592,2.25830078125,-2.8076171875,-4.33349609375,6.273570913223993,0,0,0
1649428812.324165,-0.0054931640625,-0.0018310546875,0.992431640625,0.9924485321296592,-5.67626953125,4.45556640625,0.54931640625,6.675471709939412,0,0,0
1649428812.3351948,-0.0054931640625,-0.0018310546875,0.992431640625,0.9924485321296592,4.21142578125,3.72314453125,0.732421875,4.172323281423974,0,0,0
1649428812.3436155,-0.005859375,0.00128173828125,0.99188232421875,0.9919004588294139,3.11279296875,0.06103515625,3.35693359375,8.951591719907459,0,0,0
1649428812.350056,-0.0047607421875,-0.00146484375,0.99298095703125,0.9929934498575934,1.3427734375,-2.197265625,-5.31005859375,2.940475944933082,0,0,0
1649428812.3564634,-0.003662109375,0.0003662109375,0.99407958984375,0.994086402733406,2.13623046875,3.35693359375,5.18798828125,1.840187186484538,0,0,0
1649428812.3634593,-0.003662109375,0.0003662109375,0.99407958984375,0.994086402733406,0.42724609375,-2.9296875,-0.06103515625,5.404627760562226,0,0,0
1649428812.3698661,-0.00274658203125,0.0025634765625,0.99371337890625,0.9937204810922522,-2.50244140625,-0.6103515625,2.44140625,4.957392469731769,0,0,0
1649428812.376273,-0.00347900390625,0.00201416015625,0.992431640625,0.9924397823661363,3.173828125,1.708984375,3.72314453125,4.643889053131655,0,0,0
1649428812.3826332,-0.00347900390625,0.00201416015625,0.992431640625,0.9924397823661363,-2.3193359375,0.1220703125,-2.13623046875,1.6569667920530062,0,0,0
1649428812.3890398,-0.00494384765625,0.00054931640625,0.99407958984375,0.9940920351366269,0.42724609375,0.0,-2.38037109375,5.682828661623218,0,0,0
1649428812.395426,-0.00494384765625,0.00054931640625,0.99407958984375,0.9940920351366269,2.5634765625,-1.28173828125,-3.41796875,5.7093160808928545,0,0,0
1649428812.401783,-0.00494384765625,0.00054931640625,0.99407958984375,0.9940920351366269,3.96728515625,3.72314453125,5.0048828125,4.276818369471399,0,0,0
1649428812.4081964,-0.002197265625,0.00201416015625,0.99627685546875,0.9962813144689919,-0.3662109375,-0.67138671875,-0.67138671875,5.99947954940585,0,0,0
1649428812.4145844,-0.002197265625,0.00201416015625,0.99627685546875,0.9944600452125673,-1.28173828125,-1.8310546875,-0.8544921875,6.095270309556474,0,0,0
1649428812.4209347,-0.00531005859375,0.0003662109375,0.99444580078125,0.9944600452125673,-2.01416015625,1.77001953125,-2.86865234375,2.24091305550364,0,0,0
1649428812.427287,-0.003662109375,0.002197265625,0.99261474609375,0.9926239334128817,-1.77001953125,-6.40869140625,0.06103515625,3.015532062264557,0,0,0
1649428812.4336917,-0.003662109375,0.002197265625,0.99261474609375,0.9926239334128817,-1.52587890625,0.30517578125,-3.41796875,3.6237616232415517,0,0,0
1649428812.4409313,-0.00347900390625,0.00054931640625,0.99444580078125,0.994452038012973,0.06103515625,1.77001953125,-2.13623046875,3.573554972730578,0,0,0
1649428812.4472854,-0.0025634765625,0.0032958984375,0.9949951171875,0.9950038781761424,0.1220703125,0.6103515625,3.35693359375,8.098148579405267,0,0,0
1649428812.4536548,-0.0025634765625,0.0032958984375,0.9949951171875,0.9950038781761424,-1.953125,1.64794921875,0.30517578125,5.9442727461743585,0,0,0
1649428812.4600194,-0.0025634765625,0.0032958984375,0.9949951171875,0.9950038781761424,-1.5869140625,2.13623046875,4.150390625,8.127994719051163,0,0,0
1649428812.4664233,-0.0025634765625,0.00146484375,0.99114990234375,0.9911542998420193,-0.1220703125,1.5869140625,-1.708984375,2.3480693434657405,0,0,0
1649428812.473435,-0.0025634765625,0.00146484375,0.99114990234375,0.9911542998420193,-1.953125,-0.8544921875,-0.79345703125,2.0132351687586234,0,0,0
1649428812.4797904,-0.0040283203125,0.002197265625,0.99462890625,0.9946394907145192,3.47900390625,-0.54931640625,-0.6103515625,6.132135050100786,0,0,0
1649428812.4861364,-0.0018310546875,0.00054931640625,0.993896484375,0.9938983228493584,-0.67138671875,-3.41796875,-1.15966796875,3.12533376818655,0,0,0
1649428812.492541,-0.0018310546875,0.00054931640625,0.993896484375,0.9938983228493584,3.5400390625,-0.732421875,8.544921875,11.971917930850665,0,0,0
1649428812.4989026,-0.00439453125,0.0,0.993896484375,0.9939061995771492,6.28662109375,3.662109375,7.87353515625,3.675309867510888,0,0,0
1649428812.5053835,-0.00457763671875,0.0018310546875,0.99261474609375,0.9926269902042545,-1.3427734375,-3.90625,3.23486328125,4.7720749778788765,0,0,0
1649428812.5118103,-0.00457763671875,0.0018310546875,0.99261474609375,0.9926269902042545,5.0048828125,-0.30517578125,0.18310546875,5.996063431156807,0,0,0
1649428812.5181625,-0.0047607421875,0.0,0.99151611328125,0.9915275425133345,4.8828125,1.5869140625,-6.04248046875,5.857467340825234,0,0,0
1649428812.5257256,-0.002197265625,0.01153564453125,0.9927978515625,0.9928672988562439,-3.11279296875,4.2724609375,10.1318359375,2.3137074488555744,0,0,0
1649428812.5324786,-0.002197265625,0.01153564453125,0.9927978515625,0.9928672988562439,-0.8544921875,-0.54931640625,1.46484375,4.15128810379198,0,0,0
1649428812.5390408,-0.00347900390625,0.02032470703125,0.9935302734375,0.993744233402579,1.8310546875,-2.01416015625,0.8544921875,3.4402394216411016,0,0,0
1649428812.545602,-0.00018310546875,0.00714111328125,0.993896484375,0.993922155241291,-1.953125,3.173828125,5.2490234375,5.558222057919659,0,0,0
1649428812.5522032,-0.00018310546875,0.00714111328125,0.993896484375,0.993922155241291,2.25830078125,0.3662109375,4.08935546875,3.475254112667666,0,0,0
1649428812.558738,0.00457763671875,0.0040283203125,0.99188232421875,0.9919010672542189,-2.685546875,-1.28173828125,-3.11279296875,9.295195419797649,0,0,0
1649428812.5653217,-0.00384521484375,0.013916015625,0.9942626953125,0.9943675117672274,5.126953125,0.30517578125,0.0,8.885385601947917,0,0,0
1649428812.5719023,-0.00384521484375,0.013916015625,0.9942626953125,0.9943675117672274,-0.06103515625,-1.64794921875,-2.685546875,5.9642935088753655,0,0,0
1649428812.5789502,-0.01080322265625,-0.01007080078125,0.99407958984375,0.9941892986710601,5.859375,8.7890625,3.662109375,1.9281700438148577,0,0,0
1649428812.5855198,-0.0098876953125,-0.01025390625,0.99169921875,0.9918015172308101,-0.18310546875,6.53076171875,0.732421875,5.706379105777637,0,0,0
1649428812.5920937,-0.0098876953125,-0.01025390625,0.99169921875,0.9918015172308101,-1.64794921875,-5.2490234375,-10.986328125,3.1133912951310667,0,0,0
1649428812.5986502,-0.00860595703125,-0.0047607421875,0.9920654296875,0.9921141788844888,5.126953125,-2.62451171875,-3.0517578125,10.29921919168655,0,0,0
1649428812.6052604,-0.00531005859375,0.00714111328125,0.99334716796875,0.9933870284701228,-0.9765625,-3.5400390625,6.103515625,12.758683716273017,0,0,0
1649428812.611797,-0.00531005859375,0.00714111328125,0.99334716796875,0.9933870284701228,-0.8544921875,-0.3662109375,-0.67138671875,8.072807967571924,0,0,0
1649428812.6183379,-0.00384521484375,-0.03057861328125,0.99884033203125,0.9993156889390342,-0.30517578125,-3.7841796875,-6.8359375,3.9920911684003495,0,0,0
1649428812.6248863,-0.005859375,-0.018310546875,0.9935302734375,0.9937162636482537,-2.3193359375,-0.67138671875,-1.77001953125,4.707627001531655,0,0,0
1649428812.6314867,-0.005859375,-0.018310546875,0.9935302734375,0.9937162636482537,3.84521484375,3.60107421875,2.8076171875,7.108696286847249,0,0,0
1649428812.6380975,-0.0047607421875,-0.00054931640625,0.9931640625,0.9931756246788349,-2.25830078125,-0.8544921875,-1.28173828125,4.335215052997989,0,0,0
1649428812.6446822,-0.00311279296875,0.00347900390625,0.99334716796875,0.9933581373602283,0.67138671875,-1.89208984375,-13.61083984375,7.413699013549651,0,0,0
1649428812.651242,-0.00311279296875,0.00347900390625,0.99334716796875,0.9933581373602283,-1.77001953125,-0.6103515625,-1.5869140625,7.59023151594953,0,0,0
1649428812.6578174,-0.0084228515625,0.0069580078125,0.9927978515625,0.992857961829525,0.0,-1.77001953125,-3.173828125,7.258309403769474,0,0,0
1649428812.6643972,-0.0025634765625,0.00164794921875,0.99462890625,0.9946335748891575,0.9765625,-2.44140625,-5.06591796875,6.383355331216994,0,0,0
1649428812.671556,-0.0025634765625,0.00164794921875,0.99462890625,0.9946335748891575,-2.38037109375,-2.8076171875,8.544921875,7.6520659243909,0,0,0
1649428812.6780944,-0.00439453125,0.0,0.99188232421875,0.9918920591488253,-0.3662109375,1.708984375,-2.62451171875,2.176825500503785,0,0,0
1649428812.6845856,-0.0091552734375,0.00567626953125,0.99371337890625,0.9937717637791804,-2.13623046875,2.38037109375,2.25830078125,7.56589787970772,0,0,0
1649428812.6912286,-0.0091552734375,0.00567626953125,0.99371337890625,0.9937717637791804,5.0048828125,-0.06103515625,0.3662109375,5.930469265393669,0,0,0
1649428812.697728,-0.00567626953125,0.005126953125,0.99481201171875,0.9948414166810928,0.06103515625,-2.62451171875,-5.4931640625,3.712121874886467,0,0,0
1649428812.7046912,-0.00714111328125,0.005859375,0.9931640625,0.9932070191132311,-6.591796875,0.732421875,-8.60595703125,3.7431025650541905,0,0,0
1649428812.7112768,-0.00714111328125,0.005859375,0.9931640625,0.9932070191132311,-2.38037109375,0.0,-4.33349609375,2.998808226693908,0,0,0
1649428812.7177875,-0.00750732421875,0.00238037109375,0.99334716796875,0.9933783882262617,-5.79833984375,-0.30517578125,2.3193359375,6.941927347711392,0,0,0
1649428812.7243254,-0.003662109375,0.003662109375,0.992431640625,0.992445153851727,-0.06103515625,1.03759765625,-3.35693359375,5.781289177839169,0,0,0
1649428812.730881,-0.003662109375,0.003662109375,0.992431640625,0.992445153851727,2.5634765625,-0.6103515625,-7.26318359375,4.7720749778788765,0,0,0
1649428812.7373884,-0.0113525390625,0.01959228515625,0.9906005859375,0.9908593536120692,4.2724609375,-0.732421875,7.4462890625,3.166189538413803,0,0,0
1649428812.7439501,0.010986328125,-0.01849365234375,0.9993896484375,0.9996211202184113,-5.06591796875,1.220703125,-6.53076171875,8.175521912086326,0,0,0
1649428812.7505002,0.010986328125,-0.01849365234375,0.9993896484375,0.9996211202184113,-1.3427734375,1.89208984375,-1.77001953125,3.543720304442086,0,0,0
1649428812.757066,0.0010986328125,-0.031494140625,0.99481201171875,0.9953110200071486,5.06591796875,0.91552734375,0.67138671875,1.9048445476473677,0,0,0
1649428812.7636046,-0.0029296875,-0.00274658203125,0.993896484375,0.993904597250001,1.953125,4.0283203125,-1.28173828125,6.14487936945958,0,0,0
1649428812.770137,-0.0029296875,-0.00274658203125,0.993896484375,0.993904597250001,-2.74658203125,1.953125,0.54931640625,6.914504732116408,0,0,0
1649428812.7766786,-0.0040283203125,0.00146484375,0.995361328125,0.995370557460143,-1.3427734375,-0.18310546875,2.01416015625,3.6955262459034675,0,0,0
1649428812.7841778,-0.0054931640625,-0.0018310546875,0.9935302734375,0.9935471462640711,-6.4697265625,-2.01416015625,-8.7890625,10.249727396712775,0,0,0
1649428812.7906783,-0.0054931640625,-0.0018310546875,0.9935302734375,0.9935471462640711,2.5634765625,-1.5869140625,-0.6103515625,2.4214885772555386,0,0,0
1649428812.797228,-0.0054931640625,-0.0018310546875,0.9935302734375,0.9935471462640711,2.38037109375,-2.8076171875,-6.16455078125,11.689626745019769,0,0,0
1649428812.8037875,-0.003662109375,-0.0010986328125,0.99444580078125,0.9944531505961418,0.79345703125,5.43212890625,3.60107421875,6.103820793152237,0,0,0
1649428812.8102953,-0.003662109375,-0.0010986328125,0.99444580078125,0.9944531505961418,-0.9765625,-0.79345703125,4.21142578125,5.357551842926865,0,0,0
1649428812.816834,-0.0032958984375,0.0010986328125,0.9927978515625,0.9928039302942363,1.28173828125,-3.2958984375,4.82177734375,7.0905936188757845,0,0,0
1649428812.823423,-0.005126953125,0.00201416015625,0.99334716796875,0.9933624407038032,2.9296875,-1.220703125,-7.14111328125,6.740724424743973,0,0,0
1649428812.8307266,-0.005126953125,0.00201416015625,0.99334716796875,0.9931686029921186,2.62451171875,-0.91552734375,0.42724609375,4.06422651723303,0,0,0
1649428812.8372865,-0.00238037109375,0.0018310546875,0.9931640625,0.9931686029921186,-1.708984375,-3.0517578125,-8.7890625,7.094270359397114,0,0,0
1649428812.84382,-0.00494384765625,0.0010986328125,0.99444580078125,0.9944586966360979,4.94384765625,-3.11279296875,2.197265625,4.512475680975225,0,0,0
1649428812.850461,-0.00494384765625,0.0010986328125,0.99444580078125,0.9937262842659347,-2.38037109375,-0.732421875,-1.15966796875,10.539659928566756,0,0,0
1649428812.8570168,-0.00494384765625,0.0010986328125,0.99371337890625,0.9937262842659347,0.8544921875,0.67138671875,1.77001953125,3.475254112667666,0,0,0
1649428812.8635666,-0.0054931640625,-0.00018310546875,0.992431640625,0.9924468598835201,-1.0986328125,3.72314453125,0.732421875,7.114982070658995,0,0,0
1649428812.8700962,-0.0054931640625,-0.00018310546875,0.992431640625,0.992440593158277,-3.7841796875,-4.5166015625,-5.126953125,5.30128192153527,0,0,0
1649428812.8766956,-0.00347900390625,0.00238037109375,0.992431640625,0.992440593158277,-5.126953125,-1.89208984375,0.732421875,5.587634382402745,0,0,0
1649428812.8836966,-0.0032958984375,0.00128173828125,0.99700927734375,0.9970155489805756,-0.3662109375,-5.67626953125,-6.7138671875,4.309358668970668,0,0,0
1649428812.890322,-0.0032958984375,0.00128173828125,0.99700927734375,0.9957439874410776,2.685546875,1.8310546875,-3.0517578125,3.5688608169052047,0,0,0
1649428812.8973973,-0.00567626953125,-0.000732421875,0.9957275390625,0.9957439874410776,1.89208984375,-0.79345703125,-10.3759765625,11.530637916095783,0,0,0
1649428812.90452,-0.00494384765625,0.00091552734375,0.9906005859375,0.9906133457003715,-0.79345703125,-1.77001953125,2.62451171875,6.033843061173226,0,0,0
1649428812.9150407,-0.0029296875,0.002197265625,0.9931640625,0.9931708141536271,4.0283203125,1.52587890625,0.18310546875,4.204343285960577,0,0,0
1649428812.9224591,-0.00311279296875,-0.0003662109375,0.99591064453125,0.9959155764828497,4.57763671875,-1.64794921875,-1.953125,6.509049589948393,0,0,0
1649428812.929769,-0.00311279296875,-0.0003662109375,0.99591064453125,0.9959155764828497,-2.74658203125,-0.9765625,1.8310546875,5.615897761425021,0,0,0
1649428812.936814,-0.00311279296875,-0.0003662109375,0.99591064453125,0.9959155764828497,2.86865234375,7.568359375,-1.220703125,5.651275407261089,0,0,0
1649428812.9441276,-0.00421142578125,0.000732421875,0.9931640625,0.9931732616167321,0.9765625,-3.47900390625,5.37109375,5.014549781846614,0,0,0
1649428812.9510405,-0.00274658203125,0.00128173828125,0.9935302734375,0.9935348966204808,0.18310546875,-8.30078125,2.99072265625,8.328335972273356,0,0,0
1649428812.9576643,-0.00274658203125,0.00128173828125,0.9935302734375,0.9935348966204808,2.86865234375,-2.44140625,2.99072265625,13.119861414311174,0,0,0
1649428812.9643054,-0.003662109375,0.00164794921875,0.9935302734375,0.993538389302847,-2.74658203125,0.42724609375,-3.96728515625,4.64589410009401,0,0,0
1649428812.9709191,-0.00421142578125,0.002197265625,0.99224853515625,0.992259905268303,1.46484375,0.06103515625,-5.37109375,12.805606336600974,0,0,0
1649428812.9777446,-0.00421142578125,0.002197265625,0.99224853515625,0.992259905268303,1.953125,-3.662109375,0.6103515625,9.19688622450978,0,0,0
1649428812.9847577,-0.0032958984375,0.00054931640625,0.9935302734375,0.9935358921205706,-2.13623046875,-2.99072265625,-4.8828125,6.1946925157312025,0,0,0
1649428812.9917188,-0.00439453125,0.0025634765625,0.9935302734375,0.993543299284831,5.7373046875,1.28173828125,5.67626953125,2.3488624761833323,0,0,0
1649428812.9990733,-0.00439453125,0.0025634765625,0.9935302734375,0.993543299284831,-0.42724609375,-4.45556640625,-4.21142578125,9.7034381686918,0,0,0
1649428813.0063019,-0.00439453125,0.0025634765625,0.9935302734375,0.993543299284831,-4.45556640625,2.62451171875,3.84521484375,6.945682786096827,0,0,0
1649428813.0134926,-0.005126953125,0.0010986328125,0.9931640625,0.9931779033405378,-5.9814453125,-0.244140625,4.08935546875,2.659760567566031,0,0,0
1649428813.020916,-0.01153564453125,0.0120849609375,0.99188232421875,0.9920230150924936,-2.8076171875,-1.953125,-5.0048828125,5.833249659165217,0,0,0
1649428813.0280483,-0.01153564453125,0.0120849609375,0.99188232421875,0.9920230150924936,1.89208984375,4.8828125,1.15966796875,13.058956286127522,0,0,0
1649428813.0349922,0.00054931640625,0.00860595703125,0.9935302734375,0.9935676969797939,5.55419921875,-3.72314453125,-3.5400390625,6.970043814944194,0,0,0
1649428813.0413542,0.0010986328125,-0.00018310546875,0.99700927734375,0.9970098994649832,5.126953125,-0.9765625,2.99072265625,6.829394888036799,0,0,0
1649428813.0476685,0.0010986328125,-0.00018310546875,0.99700927734375,0.9970098994649832,1.52587890625,1.52587890625,-3.47900390625,6.381312423983579,0,0,0
1649428813.0540848,-0.00421142578125,-0.00347900390625,0.99261474609375,0.9926297767738234,-0.06103515625,-3.662109375,-0.3662109375,4.602390752321498,0,0,0
1649428813.06048,-0.0069580078125,-0.002197265625,0.9906005859375,0.9906274590928035,-0.3662109375,4.08935546875,6.77490234375,2.7742476018953885,0,0,0
1649428813.0667455,-0.0069580078125,-0.002197265625,0.9906005859375,0.9906274590928035,6.40869140625,-0.3662109375,0.732421875,5.405661578487433,0,0,0
1649428813.0732327,-0.0069580078125,-0.002197265625,0.9906005859375,0.9906274590928035,-3.47900390625,4.21142578125,0.18310546875,7.787904169239528,0,0,0
1649428813.079496,-0.0062255859375,0.00457763671875,0.99609375,0.9961237229718287,-0.732421875,-1.89208984375,0.732421875,4.9393244644006815,0,0,0
1649428813.0858936,-0.0062255859375,0.00457763671875,0.99609375,0.9961237229718287,5.7373046875,-0.79345703125,0.3662109375,9.700366366733242,0,0,0
1649428813.0921855,-0.0029296875,0.00567626953125,0.9964599609375,0.9964804347583565,-1.28173828125,-0.79345703125,-7.2021484375,2.7628101312881532,0,0,0
1649428813.0984528,-0.0029296875,0.00567626953125,0.9964599609375,0.9964804347583565,-1.220703125,6.04248046875,-1.0986328125,1.4507891020513566,0,0,0
1649428813.104828,-0.0029296875,0.00567626953125,0.9964599609375,0.9964804347583565,-4.0283203125,-0.8544921875,-0.9765625,2.4314678084768175,0,0,0
1649428813.1112745,-0.0054931640625,0.010986328125,0.9927978515625,0.9928738330342901,2.5634765625,-6.89697265625,1.89208984375,7.128582254650568,0,0,0
1649428813.1175673,-0.0054931640625,0.010986328125,0.9927978515625,0.9952051911827848,-4.45556640625,-0.54931640625,0.67138671875,4.377544208261989,0,0,0
1649428813.123862,-0.00732421875,-0.00018310546875,0.99517822265625,0.9952051911827848,3.23486328125,-3.0517578125,-2.86865234375,5.325820155852901,0,0,0
1649428813.1303651,-0.00494384765625,-0.02032470703125,0.992431640625,0.9926520521608685,-0.42724609375,-0.48828125,-1.5869140625,2.4006299364376384,0,0,0
1649428813.136962,-0.00494384765625,-0.02032470703125,0.992431640625,0.9926520521608685,3.41796875,-1.52587890625,0.8544921875,3.928123268970724,0,0,0
1649428813.1436648,-0.00439453125,-0.0084228515625,0.99407958984375,0.994124985742371,1.89208984375,-1.15966796875,7.87353515625,3.3840127626047636,0,0,0
1649428813.1503196,-0.0032958984375,0.00311279296875,0.9920654296875,0.9920757880361866,-2.01416015625,-3.35693359375,-0.9765625,6.779574595977471,0,0,0
1649428813.1569982,-0.0032958984375,0.00311279296875,0.9920654296875,0.9920757880361866,4.69970703125,1.40380859375,2.86865234375,7.536050066185328,0,0,0
1649428813.1636,-0.005859375,0.00860595703125,0.99261474609375,0.992669345217517,-2.01416015625,1.52587890625,-2.25830078125,4.722243929171069,0,0,0
1649428813.170206,-0.01043701171875,0.010986328125,0.9957275390625,0.9958428403451771,-0.48828125,3.47900390625,6.65283203125,6.987392550275234,0,0,0
1649428813.1769652,-0.01043701171875,0.010986328125,0.9957275390625,0.9958428403451771,4.39453125,-1.89208984375,2.01416015625,7.192055046656948,0,0,0
1649428813.1836076,-0.01043701171875,0.010986328125,0.9957275390625,0.9958428403451771,-8.056640625,2.62451171875,2.99072265625,8.10205778485919,0,0,0
1649428813.190213,0.00146484375,0.01190185546875,0.99188232421875,0.9919548099729143,-2.9296875,-3.662109375,-2.8076171875,7.799375954753342,0,0,0
1649428813.1980326,0.00146484375,0.01190185546875,0.99188232421875,0.9919548099729143,1.28173828125,-1.0986328125,-7.32421875,4.46558831148446,0,0,0
1649428813.2046535,0.00146484375,0.01190185546875,0.99188232421875,0.9919548099729143,1.708984375,-0.3662109375,9.21630859375,2.9073499423375377,0,0,0
1649428813.2112489,0.00146484375,0.01190185546875,0.99188232421875,0.9919548099729143,1.40380859375,-1.220703125,1.03759765625,6.151241627629146,0,0,0
1649428813.217838,-0.0069580078125,-0.00018310546875,0.9931640625,0.9931884526321454,0.06103515625,3.662109375,-3.0517578125,8.918236814088415,0,0,0
1649428813.2254148,-0.0069580078125,-0.00018310546875,0.9931640625,0.9931884526321454,5.79833984375,-0.42724609375,5.37109375,8.735493487702561,0,0,0
1649428813.2321937,-0.0069580078125,-0.00018310546875,0.9931640625,0.9931884526321454,3.60107421875,-1.953125,8.36181640625,5.396004908520592,0,0,0
1649428813.2386703,0.0018310546875,-0.0076904296875,0.99114990234375,0.9911814285921988,3.96728515625,6.16455078125,6.04248046875,4.069264721870919,0,0,0
1649428813.2478364,0.0018310546875,-0.0076904296875,0.99114990234375,0.9911814285921988,3.23486328125,4.94384765625,3.2958984375,6.143060371135806,0,0,0
1649428813.254364,0.0018310546875,-0.0076904296875,0.99114990234375,0.9911814285921988,0.06103515625,0.244140625,-7.87353515625,5.501634636633284,0,0,0
1649428813.260827,-0.00531005859375,0.002197265625,0.99188232421875,0.9918989715672082,0.0,1.220703125,-1.953125,8.31714587777197,0,0,0
1649428813.267305,-0.003662109375,0.00970458984375,0.99371337890625,0.9937675128149371,2.5634765625,5.55419921875,3.35693359375,6.786988620918821,0,0,0
1649428813.2737117,-0.003662109375,0.00970458984375,0.99371337890625,0.9937675128149371,-0.3662109375,-1.15966796875,-2.74658203125,6.685230565257086,0,0,0
1649428813.2803283,-0.0010986328125,-0.0029296875,0.99334716796875,0.9933520957719072,3.173828125,2.5634765625,0.732421875,5.3606799347037315,0,0,0
1649428813.2876136,-0.006591796875,0.01849365234375,0.995361328125,0.9955549409700183,-1.3427734375,8.30078125,-3.41796875,6.103820793152237,0,0,0
1649428813.294554,-0.006591796875,0.01849365234375,0.995361328125,0.9955549409700183,0.8544921875,-5.9814453125,-3.23486328125,3.6955262459034675,0,0,0
1649428813.3027756,-0.008056640625,-0.02197265625,0.99591064453125,0.9961855846033363,-2.13623046875,-3.173828125,-6.591796875,5.961794590358269,0,0,0
1649428813.3095465,-0.00567626953125,-0.0164794921875,0.99261474609375,0.9927677612922919,-1.28173828125,-0.91552734375,-3.7841796875,6.385980965933313,0,0,0
1649428813.3160763,-0.00567626953125,-0.0164794921875,0.99261474609375,0.9926650388692749,-6.89697265625,-1.52587890625,-2.685546875,8.394053889814423,0,0,0
1649428813.322564,-0.00238037109375,0.00970458984375,0.99261474609375,0.9926650388692749,-1.708984375,0.54931640625,-4.2724609375,10.911133183966085,0,0,0
1649428813.3289542,-0.003662109375,0.01263427734375,0.99462890625,0.9947158876569453,1.89208984375,-2.62451171875,-3.60107421875,8.888110376743942,0,0,0
1649428813.338747,-0.003662109375,0.01263427734375,0.99462890625,0.9953177234117352,1.28173828125,6.28662109375,1.0986328125,6.515056228512157,0,0,0
1649428813.3461874,-0.00347900390625,-0.01629638671875,0.99517822265625,0.9910493465305378,-0.3662109375,0.3662109375,-2.5634765625,7.71775009844887,0,0,0
1649428813.3532672,-0.005126953125,-0.01171875,0.990966796875,0.9910493465305378,4.150390625,-5.55419921875,8.36181640625,3.436447329164855,0,0,0
1649428813.3597064,-0.005126953125,-0.01171875,0.990966796875,0.9910493465305378,-1.64794921875,-1.708984375,7.14111328125,5.192294857764616,0,0,0
1649428813.3661404,-0.005126953125,-0.01171875,0.990966796875,0.9910493465305378,-1.8310546875,-5.43212890625,-1.03759765625,4.2724609375,0,0,0
1649428813.3725717,-0.005126953125,-0.01171875,0.990966796875,0.9910493465305378,1.40380859375,1.64794921875,-0.244140625,4.02091530566421,0,0,0
1649428813.3789675,-0.0054931640625,0.0003662109375,0.9942626953125,0.9942779371241954,2.5634765625,-1.5869140625,0.79345703125,5.648638013391042,0,0,0
1649428813.3855429,-0.0054931640625,0.0003662109375,0.9942626953125,0.9940869423662346,-3.90625,-8.6669921875,-4.2724609375,5.867951791612084,0,0,0
1649428813.392031,-0.003662109375,0.0010986328125,0.99407958984375,0.9940869423662346,-1.953125,-9.46044921875,-5.0048828125,6.196195753520743,0,0,0
1649428813.3984613,-0.00439453125,0.00146484375,0.99261474609375,0.9926255546956662,-2.13623046875,-6.4697265625,-7.32421875,2.8458357487487222,0,0,0
1649428813.4051163,-0.00439453125,0.00146484375,0.99261474609375,0.9926295572262018,-0.79345703125,-6.103515625,6.77490234375,7.193090918050287,0,0,0
1649428813.4116096,-0.00531005859375,0.0010986328125,0.99261474609375,0.9926295572262018,0.91552734375,-3.72314453125,4.82177734375,10.375797045781633,0,0,0
1649428813.4180112,-0.00640869140625,-0.000732421875,0.99407958984375,0.9941005174082055,2.685546875,4.45556640625,-3.2958984375,4.081604857739377,0,0,0
1649428813.4244337,-0.00640869140625,-0.000732421875,0.99407958984375,0.9941005174082055,-1.40380859375,-1.8310546875,5.2490234375,8.813823154217827,0,0,0
1649428813.4308882,-0.00640869140625,-0.000732421875,0.99407958984375,0.9941005174082055,0.0,1.28173828125,-2.50244140625,8.557555532227898,0,0,0
1649428813.4374979,-0.00439453125,-0.00018310546875,0.99407958984375,0.9940893201198966,-1.3427734375,-2.5634765625,-0.18310546875,11.732411368860527,0,0,0
1649428813.4443362,-0.00439453125,-0.00018310546875,0.99407958984375,0.9940893201198966,3.23486328125,0.79345703125,5.7373046875,7.951922882302904,0,0,0
1649428813.4508252,-0.00439453125,-0.00018310546875,0.99407958984375,0.9940893201198966,-0.244140625,1.03759765625,1.40380859375,6.425816498169851,0,0,0
1649428813.4573035,-0.006591796875,0.00274658203125,0.99298095703125,0.9930066346835719,3.23486328125,4.08935546875,-4.150390625,3.3043646688572177,0,0,0
1649428813.4637468,-0.006591796875,0.00274658203125,0.99298095703125,0.9930066346835719,1.5869140625,2.8076171875,2.5634765625,6.628429209100736,0,0,0
1649428813.470229,-0.006591796875,0.00146484375,0.99774169921875,0.997764549336752,5.0048828125,4.69970703125,-2.197265625,5.9830021291923785,0,0,0
1649428813.4766648,-0.00457763671875,-0.00164794921875,0.99444580078125,0.9944577020597799,-2.9296875,-1.220703125,4.57763671875,4.095272509086,0,0,0
1649428813.4831922,-0.00457763671875,-0.00164794921875,0.99444580078125,0.9944577020597799,1.03759765625,-0.18310546875,-1.15966796875,5.437612444712497,0,0,0
1649428813.4896555,-0.006591796875,0.0,0.99041748046875,0.9904394163219212,-0.67138671875,1.77001953125,-5.0048828125,11.300243397851105,0,0,0
1649428813.4967413,-0.006591796875,0.0,0.99041748046875,0.9904394163219212,-1.03759765625,-8.11767578125,-3.90625,6.958275505404302,0,0,0
1649428813.503239,-0.006591796875,0.0,0.99041748046875,0.9904394163219212,4.69970703125,8.056640625,5.92041015625,6.87533334444107,0,0,0
1649428813.5098672,-0.00238037109375,0.00091552734375,0.995361328125,0.9953645954541607,3.41796875,-1.28173828125,9.21630859375,3.6544720165826914,0,0,0
1649428813.5165725,-0.00311279296875,0.00238037109375,0.99481201171875,0.9948197295523027,2.5634765625,-1.64794921875,-2.86865234375,2.4573757494137447,0,0,0
1649428813.5237732,-0.00311279296875,0.00238037109375,0.99481201171875,0.9948197295523027,2.3193359375,1.46484375,-2.3193359375,3.8413376410057527,0,0,0
1649428813.5306473,-0.0040283203125,-0.000732421875,0.99224853515625,0.9922569825030545,-0.30517578125,-2.685546875,0.8544921875,5.170726106850097,0,0,0
1649428813.537098,-0.002197265625,0.00347900390625,0.9927978515625,0.9928063786617823,3.11279296875,9.6435546875,2.25830078125,4.88395677510066,0,0,0
1649428813.5434606,-0.002197265625,0.00347900390625,0.9927978515625,0.9928063786617823,1.953125,0.67138671875,2.01416015625,3.5473977262500953,0,0,0
1649428813.5503397,-0.002197265625,0.00347900390625,0.9927978515625,0.9928063786617823,0.18310546875,3.35693359375,-1.46484375,8.037660378239835,0,0,0
1649428813.5571108,-0.00146484375,0.0032958984375,0.9957275390625,0.9957340713067846,-0.732421875,-2.99072265625,-1.0986328125,3.5824049294016573,0,0,0
1649428813.563555,-0.00146484375,0.0032958984375,0.9957275390625,0.995380864572692,-0.54931640625,-0.18310546875,0.54931640625,6.235451454790343,0,0,0
1649428813.5706363,0.0003662109375,0.0062255859375,0.995361328125,0.995380864572692,2.13623046875,4.69970703125,-1.64794921875,4.968276715080254,0,0,0
1649428813.5770364,-0.00677490234375,0.00146484375,0.99462890625,0.9946530582153008,-7.87353515625,-0.18310546875,-4.150390625,6.625618527886675,0,0,0
1649428813.5834024,-0.00677490234375,0.00146484375,0.99462890625,0.9919196747325995,5.92041015625,-0.30517578125,-0.732421875,8.488496035980127,0,0,0
1649428813.589744,-0.00677490234375,0.00531005859375,0.99188232421875,0.9919196747325995,1.40380859375,-0.3662109375,-6.103515625,5.245118573887652,0,0,0
1649428813.5961952,-0.00384521484375,0.006591796875,0.9964599609375,0.9964891826883019,3.173828125,1.40380859375,0.3662109375,4.451802375197868,0,0,0
1649428813.6025774,-0.00384521484375,0.006591796875,0.9964599609375,0.9964891826883019,-0.244140625,1.46484375,-5.79833984375,4.536353558608898,0,0,0
1649428813.6089451,-0.0018310546875,-0.0032958984375,0.9949951171875,0.9950022607686606,3.2958984375,-1.40380859375,3.173828125,3.6605831780697873,0,0,0
1649428813.615443,-0.00860595703125,-0.002197265625,0.98968505859375,0.9897249141435033,-5.7373046875,-6.65283203125,-4.08935546875,7.883228574571566,0,0,0
1649428813.622986,-0.00860595703125,-0.002197265625,0.98968505859375,0.9897249141435033,1.64794921875,-0.54931640625,0.54931640625,4.336933330930302,0,0,0
1649428813.6295133,-0.00860595703125,-0.002197265625,0.98968505859375,0.9897249141435033,0.91552734375,1.0986328125,-0.79345703125,3.362477666220537,0,0,0
1649428813.636529,-0.00091552734375,0.00787353515625,0.99407958984375,0.994111191814121,-0.6103515625,-2.01416015625,-0.06103515625,6.312640519041702,0,0,0
1649428813.6432023,-0.00091552734375,0.00787353515625,0.99407958984375,0.992448701043254,-0.67138671875,-3.0517578125,-4.21142578125,6.43855810265654,0,0,0
1649428813.649802,-0.00238037109375,0.00531005859375,0.992431640625,0.992448701043254,-0.1220703125,-1.03759765625,5.79833984375,5.163516501967619,0,0,0
1649428813.6563344,-0.0047607421875,-0.00347900390625,0.9931640625,0.9931815660672824,0.48828125,-2.99072265625,-3.7841796875,3.9152994238207093,0,0,0
1649428813.6629014,-0.0047607421875,-0.00347900390625,0.9931640625,0.9926233423195412,1.52587890625,0.0,3.47900390625,4.266353055981761,0,0,0
1649428813.6694217,-0.0040283203125,-0.00091552734375,0.99261474609375,0.9926233423195412,-3.0517578125,0.48828125,-1.64794921875,2.8129195854011018,0,0,0
1649428813.675968,-0.00274658203125,0.0029296875,0.9931640625,0.9931721813578983,-1.40380859375,6.4697265625,3.0517578125,4.912477028285861,0,0,0
1649428813.6825664,-0.00274658203125,0.0029296875,0.9931640625,0.9922432639754053,6.40869140625,-0.54931640625,-3.96728515625,1.237373958295489,0,0,0
1649428813.6891587,-0.00201416015625,0.0186767578125,0.9920654296875,0.9922432639754053,-0.1220703125,-3.7841796875,-6.77490234375,2.62451171875,0,0,0
1649428813.6957226,-0.00384521484375,-0.02032470703125,0.99371337890625,0.9939286487522014,0.30517578125,0.0,3.84521484375,3.7792542920929493,0,0,0
1649428813.7022965,-0.00384521484375,-0.02032470703125,0.99371337890625,0.9928648844074806,1.28173828125,6.2255859375,-2.01416015625,6.332673216181497,0,0,0
1649428813.708946,-0.00933837890625,0.00677490234375,0.9927978515625,0.9928648844074806,-1.46484375,-3.96728515625,-12.0849609375,7.824887944598314,0,0,0
1649428813.7155128,0.00128173828125,0.01519775390625,0.99151611328125,0.9916334088125375,-1.28173828125,-4.21142578125,1.28173828125,4.7642621452359695,0,0,0
1649428813.7228055,0.00128173828125,0.01519775390625,0.99151611328125,0.9927295814717246,-2.5634765625,-1.5869140625,-1.708984375,6.463965964293812,0,0,0
1649428813.7293327,-0.005859375,0.013916015625,0.99261474609375,0.9927295814717246,-0.30517578125,-4.21142578125,-5.06591796875,8.557773190349389,0,0,0
1649428813.7359319,-0.01593017578125,-0.01116943359375,0.993896484375,0.9940868917756693,-3.11279296875,-8.056640625,1.64794921875,5.049714060515883,0,0,0
1649428813.7424555,-0.01593017578125,-0.01116943359375,0.993896484375,0.9940868917756693,-1.953125,6.04248046875,6.16455078125,4.6422843920425825,0,0,0
1649428813.7489495,-0.01593017578125,-0.01116943359375,0.993896484375,0.9940868917756693,-2.13623046875,-5.2490234375,-2.685546875,7.5567833755588545,0,0,0
1649428813.7554493,-0.00823974609375,-0.0025634765625,0.99261474609375,0.9926522548156206,3.84521484375,-1.52587890625,0.79345703125,9.053388158405616,0,0,0
1649428813.7619572,-0.00823974609375,-0.0025634765625,0.99261474609375,0.9968480339708049,7.26318359375,-0.06103515625,2.86865234375,9.608918776188013,0,0,0
1649428813.7684534,0.002197265625,-0.0062255859375,0.996826171875,0.9968480339708049,6.28662109375,3.72314453125,0.6103515625,6.388022380154268,0,0,0
1649428813.7750032,-0.00128173828125,-0.00018310546875,0.99224853515625,0.9922493798941666,0.6103515625,0.91552734375,-1.46484375,11.745739692043177,0,0,0
1649428813.781497,-0.00128173828125,-0.00018310546875,0.99224853515625,0.9922704305307929,-1.77001953125,-0.91552734375,-4.82177734375,6.642464775592183,0,0,0
1649428813.788035,-0.006591796875,0.0,0.99224853515625,0.9922704305307929,-10.31494140625,-1.5869140625,-7.568359375,7.017981407496387,0,0,0
1649428813.7946057,-0.0084228515625,-0.00091552734375,0.99517822265625,0.9952142872105554,-1.953125,1.3427734375,1.89208984375,3.951761244198888,0,0,0
1649428813.80117,-0.0084228515625,-0.00091552734375,0.99517822265625,0.9952142872105554,-2.01416015625,3.11279296875,-5.92041015625,8.249912348194929,0,0,0
1649428813.8077374,-0.0084228515625,-0.00091552734375,0.99517822265625,0.9952142872105554,-5.18798828125,3.47900390625,-9.6435546875,10.045800823495021,0,0,0
1649428813.8142707,0.00054931640625,0.005859375,0.9931640625,0.9931814985517041,-0.244140625,2.0751953125,-1.3427734375,2.7628101312881532,0,0,0
1649428813.820795,0.00054931640625,0.005859375,0.9931640625,0.9931814985517041,0.79345703125,-6.2255859375,-2.9296875,5.339442541513957,0,0,0
1649428813.8273985,0.00054931640625,0.005859375,0.9931640625,0.9931814985517041,-4.7607421875,-2.5634765625,-7.8125,7.355179516114064,0,0,0
1649428813.8340235,-0.0106201171875,-0.0040283203125,0.99298095703125,0.9930459180120089,-1.953125,2.50244140625,-0.6103515625,8.703450633451341,0,0,0
1649428813.8405514,-0.0106201171875,-0.0040283203125,0.99298095703125,0.9930459180120089,-0.8544921875,-2.01416015625,-1.28173828125,5.459832686840526,0,0,0
1649428813.8471148,-0.0106201171875,-0.0040283203125,0.99298095703125,0.9930459180120089,4.21142578125,-2.50244140625,0.732421875,2.645013266604059,0,0,0
1649428813.8536868,-0.0076904296875,-0.0087890625,0.99334716796875,0.9934158174903112,-3.84521484375,2.86865234375,6.7138671875,5.852377209652402,0,0,0
1649428813.860251,-0.0076904296875,-0.0087890625,0.99334716796875,0.9934158174903112,-6.4697265625,-3.2958984375,-5.126953125,1.8603211247715052,0,0,0
1649428813.866803,-0.00439453125,0.00128173828125,0.9920654296875,0.9920759908086542,-1.89208984375,-1.0986328125,-3.173828125,4.669488635482217,0,0,0
1649428813.8733246,-0.003662109375,0.0054931640625,0.99444580078125,0.9944677152064584,1.220703125,6.40869140625,0.67138671875,7.348592257466998,0,0,0
1649428813.879867,-0.003662109375,0.0054931640625,0.99444580078125,0.9944677152064584,2.685546875,6.34765625,-0.79345703125,7.358977175446384,0,0,0
1649428813.8864307,-0.0054931640625,-0.0018310546875,0.9935302734375,0.9935471462640711,0.67138671875,-2.86865234375,1.46484375,4.619760612833559,0,0,0
1649428813.8929324,-0.0032958984375,0.00128173828125,0.99298095703125,0.9929872541106604,4.8828125,0.54931640625,3.2958984375,3.354158121102072,0,0,0
1649428813.8994386,-0.0032958984375,0.00128173828125,0.99298095703125,0.9929872541106604,-1.3427734375,0.42724609375,3.173828125,6.620274946058088,0,0,0
1649428813.905999,-0.00018310546875,0.00347900390625,0.996826171875,0.9968322596759995,2.38037109375,-5.7373046875,-6.04248046875,3.521575131042885,0,0,0
1649428813.912561,-0.005126953125,0.00439453125,0.99444580078125,0.9944687266298095,0.0,1.03759765625,1.8310546875,9.782585674410836,0,0,0
1649428813.9190824,-0.005126953125,0.00439453125,0.99444580078125,0.9944687266298095,-4.8828125,-2.8076171875,1.64794921875,5.091956448880422,0,0,0
1649428813.9262524,-0.00823974609375,-0.00531005859375,0.9935302734375,0.9935786301922722,-2.38037109375,2.8076171875,1.89208984375,7.017981407496387,0,0,0
1649428813.9328036,-0.00604248046875,-0.0047607421875,0.99334716796875,0.9933769538035031,3.0517578125,5.4931640625,6.65283203125,10.472643967834351,0,0,0
1649428813.9400663,-0.00604248046875,-0.0047607421875,0.99334716796875,0.9933769538035031,-0.8544921875,-0.8544921875,-0.18310546875,4.756828068456717,0,0,0
1649428813.9466302,-0.00384521484375,0.00164794921875,0.99298095703125,0.9929897695548123,-0.732421875,-7.62939453125,-2.50244140625,6.7263400653564895,0,0,0
1649428813.9532168,-0.00604248046875,0.00164794921875,0.99371337890625,0.9937331164473282,-2.0751953125,-1.5869140625,-5.92041015625,8.713717166815247,0,0,0
1649428813.9597497,-0.00604248046875,0.00164794921875,0.99371337890625,0.9929974509052335,-2.13623046875,-0.732421875,-5.67626953125,6.5044693803285725,0,0,0
1649428813.966242,-0.00567626953125,0.000732421875,0.99298095703125,0.9929974509052335,5.06591796875,0.3662109375,-6.28662109375,3.483284441743231,0,0,0
1649428813.9729245,-0.00531005859375,-0.00018310546875,0.99481201171875,0.994826200353503,-0.732421875,0.79345703125,-6.04248046875,6.027356882631108,0,0,0
1649428813.97979,-0.00531005859375,-0.00018310546875,0.99481201171875,0.9939161339478115,-4.638671875,-1.15966796875,-4.94384765625,10.474778048273803,0,0,0
1649428813.9864101,-0.00531005859375,0.0032958984375,0.993896484375,0.9939161339478115,-2.13623046875,-2.86865234375,-8.7890625,10.670858600074638,0,0,0
1649428813.9929187,-0.00732421875,0.0098876953125,0.99444580078125,0.9945219260480647,3.84521484375,10.31494140625,-4.150390625,5.992023689587344,0,0,0
1649428813.9994946,-0.00732421875,0.0098876953125,0.99444580078125,0.996835219477418,-7.2021484375,-0.42724609375,-18.310546875,8.290228025592773,0,0,0
1649428814.0060058,-0.01922607421875,0.003662109375,0.99664306640625,0.996835219477418,2.74658203125,-0.42724609375,0.8544921875,13.10849878158648,0,0,0
1649428814.0125263,-0.00714111328125,0.0025634765625,0.9942626953125,0.9942916444389238,-2.5634765625,-1.5869140625,-3.2958984375,3.780732584460102,0,0,0
1649428814.019156,-0.00714111328125,0.0025634765625,0.9942626953125,0.9926198970827802,3.23486328125,-3.173828125,-9.27734375,6.186869791477445,0,0,0
1649428814.025675,-0.0029296875,-0.00128173828125,0.99261474609375,0.9926198970827802,-1.64794921875,-6.77490234375,-5.126953125,4.79232873350918,0,0,0
1649428814.03226,0.01593017578125,-0.0087890625,0.993896484375,0.9940629958775424,8.48388671875,7.080078125,-1.708984375,7.540991738890921,0,0,0
1649428814.0401466,0.01593017578125,-0.0087890625,0.993896484375,0.9943116908356973,0.9765625,8.6669921875,0.732421875,7.476744359593919,0,0,0
1649428814.047311,0.00640869140625,-0.00750732421875,0.9942626953125,0.9943116908356973,0.9765625,-5.0048828125,-2.25830078125,4.524842039270175,0,0,0
1649428814.0546916,-0.00494384765625,-0.0025634765625,0.9927978515625,0.9928134704509455,-2.99072265625,-5.43212890625,-7.6904296875,14.287963758202668,0,0,0
1649428814.0620332,-0.00567626953125,0.0032958984375,0.99334716796875,0.9933688534949331,-2.9296875,-3.72314453125,3.5400390625,9.296798385176203,0,0,0
1649428814.0696464,-0.00567626953125,0.0032958984375,0.99334716796875,0.9930415457716901,2.99072265625,-1.89208984375,1.46484375,7.924234554256583,0,0,0
1649428814.0768821,-0.00604248046875,0.0091552734375,0.99298095703125,0.9930415457716901,0.0,5.2490234375,2.44140625,10.698750848138337,0,0,0
1649428814.0834663,-0.00457763671875,0.00347900390625,0.99371337890625,0.9937300124497523,1.0986328125,-1.220703125,6.28662109375,9.918165940393683,0,0,0
1649428814.0900218,-0.00677490234375,0.01336669921875,0.9927978515625,0.9929109436484662,3.84521484375,-1.77001953125,2.13623046875,3.3038009283995016,0,0,0
1649428814.096538,-0.00677490234375,0.01336669921875,0.9927978515625,0.9929109436484662,0.732421875,0.67138671875,5.615234375,6.193188913069249,0,0,0
1649428814.1030366,0.0,0.005859375,0.99371337890625,0.9937306534935244,-1.953125,4.39453125,-0.79345703125,5.49824797294724,0,0,0
1649428814.1095717,-0.0029296875,-0.0150146484375,0.99627685546875,0.9963942971932597,0.0,1.5869140625,3.47900390625,5.959294623966617,0,0,0
1649428814.1161082,-0.0029296875,-0.0150146484375,0.99627685546875,0.9963942971932597,3.173828125,-1.15966796875,-7.568359375,8.457719805660725,0,0,0
1649428814.1225977,-0.0029296875,-0.0150146484375,0.99627685546875,0.9963942971932597,-0.06103515625,-5.67626953125,-4.638671875,2.452064138989339,0,0,0
1649428814.1291466,-0.00146484375,0.0135498046875,0.992431640625,0.9925252159456255,-5.55419921875,-1.64794921875,-3.662109375,7.686068797051522,0,0,0
1649428814.1356502,-0.00146484375,0.0135498046875,0.992431640625,0.9925252159456255,-2.685546875,-5.92041015625,4.5166015625,3.7071007419580604,0,0,0
1649428814.142292,-0.00714111328125,0.01666259765625,0.99444580078125,0.9946110236424144,0.42724609375,4.150390625,-4.57763671875,4.371583149284664,0,0,0
1649428814.148788,-0.00714111328125,0.01666259765625,0.99444580078125,0.9946110236424144,-5.06591796875,2.5634765625,-1.03759765625,7.889605541280256,0,0,0
1649428814.1553273,-0.00714111328125,0.01666259765625,0.99444580078125,0.9946110236424144,1.15966796875,0.3662109375,-0.3662109375,0.951443925056146,0,0,0
1649428814.1624177,-0.01373291015625,-0.0574951171875,0.99114990234375,0.9929110787164122,-5.43212890625,1.89208984375,-0.67138671875,5.692325975910175,0,0,0
1649428814.1689131,-0.002197265625,-0.03167724609375,0.993896484375,0.9944035888658566,-2.25830078125,-6.8359375,2.99072265625,4.174554828506248,0,0,0
1649428814.175432,-0.002197265625,-0.03167724609375,0.993896484375,0.9944035888658566,-5.2490234375,-9.27734375,-3.173828125,4.960772894584009,0,0,0
1649428814.181916,-0.002197265625,-0.03167724609375,0.993896484375,0.9944035888658566,-3.2958984375,-4.69970703125,-6.9580078125,7.151799479703138,0,0,0
1649428814.1884072,-0.002197265625,-0.03167724609375,0.993896484375,0.9944035888658566,2.8076171875,4.0283203125,-6.103515625,4.92421715125243,0,0,0
1649428814.194898,-0.002197265625,-0.03167724609375,0.993896484375,0.9944035888658566,0.79345703125,-0.3662109375,-2.685546875,7.82703002154752,0,0,0
1649428814.2014558,-0.00238037109375,0.00164794921875,0.99462890625,0.9946331198242108,1.89208984375,1.708984375,-6.34765625,1.7057115005471337,0,0,0
1649428814.2079425,-0.00238037109375,0.00164794921875,0.99462890625,0.9923636156255136,6.2255859375,0.9765625,-5.67626953125,6.856342922891977,0,0,0
1649428814.2144809,-0.01043701171875,-0.02197265625,0.9920654296875,0.9923636156255136,1.15966796875,2.99072265625,-0.9765625,5.631795592979626,0,0,0
1649428814.2211156,-0.0018310546875,0.0003662109375,0.990966796875,0.9909685562016672,-1.77001953125,1.15966796875,0.67138671875,10.409312831357468,0,0,0
1649428814.2276971,-0.0018310546875,0.0003662109375,0.990966796875,0.9936444800063381,-0.9765625,4.7607421875,-16.2353515625,9.182495337074066,0,0,0
1649428814.2342746,0.00604248046875,0.0487060546875,0.992431640625,0.9936444800063381,-0.244140625,-0.30517578125,-12.0849609375,14.902330551041624,0,0,0
1649428814.240874,-0.01556396484375,0.037353515625,0.9964599609375,0.9972812922554842,-1.77001953125,0.30517578125,-12.8173828125,15.583579475410446,0,0,0
1649428814.2473788,-0.01556396484375,0.037353515625,0.9964599609375,0.994771112942026,-2.5634765625,-5.4931640625,-10.55908203125,6.93279852806611,0,0,0
1649428814.2538915,0.00640869140625,-0.04925537109375,0.9935302734375,0.994771112942026,0.6103515625,1.8310546875,-10.43701171875,3.8145751933593126,0,0,0
1649428814.2604764,-0.0135498046875,-0.044677734375,0.9931640625,0.9942608069301818,2.38037109375,0.6103515625,-4.69970703125,5.308304420204809,0,0,0
1649428814.2670114,-0.0135498046875,-0.044677734375,0.9931640625,0.9917065382085839,5.615234375,-1.46484375,-8.23974609375,10.070060933997954,0,0,0
1649428814.2735665,-0.00311279296875,0.002197265625,0.99169921875,0.9917065382085839,1.953125,2.197265625,-8.36181640625,16.55223474339285,0,0,0
1649428814.2802863,0.00274658203125,0.02655029296875,0.99462890625,0.994986996356059,1.28173828125,3.35693359375,-22.94921875,24.84948026201856,0,0,0
1649428814.2883363,-0.0018310546875,0.04229736328125,0.992431640625,0.9933342745599005,-2.3193359375,-3.72314453125,-10.19287109375,20.850542034220688,0,0,0
1649428814.2948685,-0.0018310546875,0.04229736328125,0.992431640625,0.9933342745599005,1.28173828125,-6.7138671875,-3.7841796875,14.24226304880131,0,0,0
1649428814.301403,-0.01776123046875,0.0018310546875,0.989501953125,0.9896630382646522,3.60107421875,-1.220703125,-11.23046875,13.490150346462524,0,0,0
1649428814.3083682,-0.0040283203125,-0.07598876953125,0.9957275390625,0.9986309891580953,-5.18798828125,-4.45556640625,-4.69970703125,4.601581256096378,0,0,0
1649428814.31495,-0.0040283203125,-0.07598876953125,0.9957275390625,0.9986309891580953,2.8076171875,0.67138671875,-1.15966796875,3.9394871980236634,0,0,0
1649428814.321455,-0.0040283203125,-0.07598876953125,0.9957275390625,0.9986309891580953,3.35693359375,1.708984375,-2.9296875,6.4561810034640725,0,0,0
1649428814.3279371,-0.00201416015625,0.01336669921875,0.993896484375,0.993988403927392,-5.0048828125,-3.41796875,-11.5966796875,4.976892122044968,0,0,0
1649428814.3344913,-0.00201416015625,0.01336669921875,0.993896484375,0.993988403927392,1.52587890625,-0.06103515625,-15.2587890625,8.52790227468476,0,0,0
1649428814.3416293,0.0128173828125,0.01812744140625,0.99298095703125,0.993229112773481,0.79345703125,8.11767578125,-22.5830078125,29.844693573420187,0,0,0
1649428814.3482413,0.02508544921875,0.06610107421875,0.989501953125,0.9920245697630522,0.06103515625,2.197265625,-19.04296875,22.778709547309102,0,0,0
1649428814.3550925,0.02508544921875,0.06610107421875,0.989501953125,0.9920245697630522,4.94384765625,-0.48828125,-3.72314453125,10.40627040230982,0,0,0
1649428814.3619764,0.02508544921875,0.06610107421875,0.989501953125,0.9920245697630522,-2.50244140625,-1.3427734375,-2.62451171875,8.822483522005765,0,0,0
1649428814.368465,-0.01446533203125,-0.0673828125,0.99664306640625,0.9990230683356803,5.06591796875,4.21142578125,-1.89208984375,12.067686122346451,0,0,0
1649428814.3750298,-0.01446533203125,-0.0673828125,0.99664306640625,0.9990230683356803,2.5634765625,2.13623046875,-11.04736328125,8.382507119566831,0,0,0
1649428814.3815804,0.00439453125,0.01446533203125,0.99481201171875,0.994926879924142,-2.0751953125,-2.62451171875,-9.33837890625,8.538161737200882,0,0,0
1649428814.3881416,-0.0018310546875,0.00604248046875,0.99371337890625,0.9937334369682648,0.6103515625,-5.37109375,-16.7236328125,22.88199786204263,0,0,0
1649428814.394652,-0.0018310546875,0.00604248046875,0.99371337890625,0.9937334369682648,-1.03759765625,-2.9296875,-23.01025390625,18.975848728292238,0,0,0
1649428814.4012053,0.006591796875,0.013916015625,0.99334716796875,0.9934665084382325,-0.3662109375,-4.150390625,-9.27734375,14.874807292427251,0,0,0
1649428814.407715,-0.0318603515625,-0.00787353515625,0.990966796875,0.9915100942835834,-6.4697265625,3.2958984375,-16.845703125,5.15701923990202,0,0,0
1649428814.414233,-0.0318603515625,-0.00787353515625,0.990966796875,0.9915100942835834,0.06103515625,-2.9296875,-7.4462890625,4.76308911502116,0,0,0
1649428814.4208517,-0.0318603515625,-0.00787353515625,0.990966796875,0.9915100942835834,-5.79833984375,3.0517578125,-11.29150390625,11.202902755767449,0,0,0
1649428814.4273686,0.00439453125,0.017578125,0.99627685546875,0.9964416064808431,8.544921875,1.03759765625,4.33349609375,6.574820805417593,0,0,0
1649428814.4339178,0.00439453125,0.017578125,0.99627685546875,0.9964416064808431,1.3427734375,0.6103515625,-5.126953125,3.902433438268013,0,0,0
1649428814.4404848,0.00439453125,0.017578125,0.99627685546875,0.9964416064808431,-0.06103515625,-2.8076171875,-2.685546875,5.770001680879662,0,0,0
1649428814.4470484,-0.01190185546875,-0.0040283203125,0.99334716796875,0.9934266342512038,-1.52587890625,0.3662109375,-5.615234375,3.1703049104542362,0,0,0
1649428814.4536705,-0.01190185546875,-0.0040283203125,0.99334716796875,0.9934266342512038,4.45556640625,4.69970703125,-3.41796875,0.5459150335692846,0,0,0
1649428814.4601636,-0.01190185546875,-0.0040283203125,0.99334716796875,0.9934266342512038,6.16455078125,-0.8544921875,-9.27734375,12.69883327080954,0,0,0
1649428814.4667456,0.02178955078125,-0.01007080078125,0.9931640625,0.9934541059319892,-5.615234375,-3.5400390625,-6.34765625,6.122407286609065,0,0,0
1649428814.4732945,0.02178955078125,-0.01007080078125,0.9931640625,0.9934541059319892,5.37109375,-0.8544921875,2.197265625,7.629150386718625,0,0,0
1649428814.479838,-0.00823974609375,-0.0150146484375,0.99334716796875,0.9934948058218157,-1.64794921875,-1.5869140625,-3.96728515625,7.24109528668498,0,0,0
1649428814.4863527,-0.00787353515625,-0.00384521484375,0.993896484375,0.9939351084884948,1.64794921875,2.3193359375,6.34765625,8.657961156395347,0,0,0
1649428814.492891,-0.00787353515625,-0.00384521484375,0.993896484375,0.9939351084884948,3.23486328125,0.48828125,4.8828125,6.317949473367084,0,0,0
1649428814.499467,0.00146484375,0.000732421875,0.99078369140625,0.9907850449848393,3.60107421875,-3.2958984375,-4.150390625,7.913885297231802,0,0,0
1649428814.5062854,-0.0029296875,-0.000732421875,0.992431640625,0.9924362351427318,0.67138671875,4.21142578125,4.45556640625,6.160319169526163,0,0,0
1649428814.5129304,-0.0029296875,-0.000732421875,0.992431640625,0.9924362351427318,-1.953125,0.42724609375,1.77001953125,4.63746707729776,0,0,0
1649428814.5194197,-0.00347900390625,0.00091552734375,0.99334716796875,0.9933536821142975,1.15966796875,-0.9765625,-0.06103515625,5.812457115261247,0,0,0
1649428814.5259116,-0.0032958984375,-0.00201416015625,0.9935302734375,0.9935377818807087,-2.0751953125,1.220703125,5.67626953125,9.11428814364579,0,0,0
1649428814.532416,-0.0032958984375,-0.00201416015625,0.9935302734375,0.9935377818807087,-4.08935546875,9.33837890625,5.2490234375,9.304008311763242,0,0,0
1649428814.5389059,-0.0062255859375,0.00054931640625,0.99517822265625,0.9951978469219234,-3.47900390625,-2.01416015625,-4.150390625,6.589535925911025,0,0,0
1649428814.545474,-0.0186767578125,-0.0025634765625,0.99371337890625,0.9938921833437214,0.06103515625,-2.38037109375,6.2255859375,8.847782226743528,0,0,0
1649428814.5520482,-0.0186767578125,-0.0025634765625,0.99371337890625,0.9938921833437214,-0.91552734375,-1.15966796875,5.43212890625,3.7256451323319952,0,0,0
1649428814.5586255,-0.02398681640625,-0.0069580078125,0.99298095703125,0.9932950026355328,3.7841796875,3.0517578125,15.0146484375,12.291122710050779,0,0,0
1649428814.5652184,-0.00164794921875,0.0040283203125,0.99078369140625,0.9907932510154492,2.685546875,-1.89208984375,3.84521484375,8.702808572985457,0,0,0
1649428814.5717514,-0.00164794921875,0.0040283203125,0.99078369140625,0.9907932510154492,-2.62451171875,-3.35693359375,-0.67138671875,6.396181521635291,0,0,0
1649428814.5783277,-0.00164794921875,0.0040283203125,0.99078369140625,0.9907932510154492,-1.953125,-0.6103515625,3.35693359375,6.138207073620423,0,0,0
1649428814.5848722,0.00640869140625,0.00128173828125,0.99462890625,0.9946503784378878,10.25390625,-2.685546875,0.244140625,5.810854607134719,0,0,0
1649428814.591408,0.00640869140625,0.00128173828125,0.99462890625,0.9946503784378878,3.662109375,6.53076171875,14.16015625,7.697692348186903,0,0,0
1649428814.5979235,0.00640869140625,0.00128173828125,0.99462890625,0.9946503784378878,1.708984375,-0.91552734375,0.79345703125,9.490721475552352,0,0,0
1649428814.6044881,-0.0054931640625,-0.00164794921875,0.99224853515625,0.9922651087828136,-5.4931640625,-5.2490234375,-6.77490234375,10.442899415256957,0,0,0
1649428814.6110103,-0.0054931640625,-0.00164794921875,0.99224853515625,0.9922651087828136,-6.16455078125,-2.5634765625,-6.77490234375,9.79647531865292,0,0,0
1649428814.6175349,0.0025634765625,-0.01007080078125,0.9927978515625,0.9928522380030061,0.91552734375,-1.77001953125,-12.0849609375,18.699084133016655,0,0,0
1649428814.624052,0.0025634765625,-0.01007080078125,0.9927978515625,0.9928522380030061,-0.1220703125,-3.0517578125,-23.62060546875,23.558226235745284,0,0,0
1649428814.6305723,0.0025634765625,-0.01007080078125,0.9927978515625,0.9928522380030061,4.45556640625,-2.86865234375,-1.52587890625,5.624514664798961,0,0,0
1649428814.6371179,-0.052001953125,-0.047607421875,0.9913330078125,0.993836909218498,1.89208984375,1.03759765625,-6.9580078125,14.475243629289588,0,0,0
1649428814.6443396,-0.0260009765625,-0.025634765625,0.9891357421875,0.989809430377216,4.82177734375,-0.06103515625,2.50244140625,6.1995015936147295,0,0,0
1649428814.6508787,-0.0260009765625,-0.025634765625,0.9891357421875,0.989809430377216,-4.82177734375,0.06103515625,5.67626953125,8.971337520028419,0,0,0
1649428814.6574504,-0.0260009765625,-0.025634765625,0.9891357421875,0.989809430377216,2.86865234375,-0.1220703125,10.3759765625,7.28699443627317,0,0,0
1649428814.6639977,0.0194091796875,0.047607421875,0.99444580078125,0.9957738867660607,-4.69970703125,3.662109375,4.7607421875,4.0403245027918375,0,0,0
1649428814.6705577,0.0194091796875,0.047607421875,0.99444580078125,0.9957738867660607,-3.35693359375,1.77001953125,-7.26318359375,2.993835075300469,0,0,0
1649428814.6770763,0.0289306640625,0.0047607421875,0.99554443359375,0.9959760876892445,-0.732421875,-7.4462890625,-6.53076171875,4.659505538084061,0,0,0
1649428814.6836069,0.0289306640625,0.0047607421875,0.99554443359375,0.9959760876892445,2.44140625,-3.662109375,1.953125,10.670160359694366,0,0,0
1649428814.6902308,0.0289306640625,0.0047607421875,0.99554443359375,0.9959760876892445,-0.8544921875,0.91552734375,7.4462890625,5.761279073200296,0,0,0
1649428814.6973097,-0.027099609375,-0.00439453125,0.99005126953125,0.9904318336128058,-0.18310546875,3.35693359375,-0.1220703125,9.014626036095352,0,0,0
1649428814.7038805,-0.01153564453125,-0.00970458984375,0.9949951171875,0.9951093072551144,-2.50244140625,2.99072265625,4.7607421875,4.34765718225296,0,0,0
1649428814.7106245,-0.01153564453125,-0.00970458984375,0.9949951171875,0.9951093072551144,1.03759765625,2.685546875,1.46484375,4.180351275919865,0,0,0
1649428814.7171428,-0.0018310546875,-0.01666259765625,0.99627685546875,0.9964178679974699,1.28173828125,1.8310546875,-0.54931640625,7.031769203513792,0,0,0
1649428814.7236872,-0.00146484375,-0.0106201171875,0.99462890625,0.9946866812239719,4.2724609375,1.28173828125,4.2724609375,4.751734893591777,0,0,0
1649428814.7301798,-0.00146484375,-0.0106201171875,0.99462890625,0.9946866812239719,-3.96728515625,7.6904296875,1.708984375,6.43479616362509,0,0,0
1649428814.7366788,-0.00146484375,-0.0106201171875,0.99462890625,0.9946866812239719,-2.38037109375,3.662109375,-5.18798828125,0.8653226854710586,0,0,0
1649428814.7432206,0.01409912109375,0.0274658203125,0.990234375,0.990715536333561,-1.0986328125,-5.126953125,-4.08935546875,3.882334935007141,0,0,0
1649428814.749701,0.01409912109375,0.0274658203125,0.990234375,0.990715536333561,0.732421875,2.5634765625,7.14111328125,8.809806926270037,0,0,0
1649428814.7562249,0.01043701171875,0.0076904296875,0.99481201171875,0.9948964833500529,-2.8076171875,6.591796875,4.45556640625,3.40212829818647,0,0,0
1649428814.7627366,0.01043701171875,0.0076904296875,0.99481201171875,0.9948964833500529,1.03759765625,-0.9765625,-0.9765625,4.537995677597926,0,0,0
1649428814.7698889,0.01043701171875,0.0076904296875,0.99481201171875,0.9948964833500529,-0.244140625,0.6103515625,-5.67626953125,3.7455898419351215,0,0,0
1649428814.7765417,0.01043701171875,0.0076904296875,0.99481201171875,0.9948964833500529,-1.953125,-0.54931640625,-12.26806640625,17.055040070143626,0,0,0
1649428814.783054,0.06207275390625,-0.02362060546875,0.992431640625,0.9946514570912995,3.84521484375,2.197265625,-20.32470703125,24.36350355708974,0,0,0
1649428814.7895844,0.06207275390625,-0.02362060546875,0.992431640625,0.9946514570912995,0.0,1.220703125,-23.3154296875,17.68303400952443,0,0,0
1649428814.7961473,0.06207275390625,-0.02362060546875,0.992431640625,0.9946514570912995,4.2724609375,-0.79345703125,-12.20703125,21.566839610732472,0,0,0
1649428814.8032541,-0.01043701171875,-0.0018310546875,0.9993896484375,0.9994458231334582,0.9765625,-2.8076171875,-29.541015625,24.172773096702137,0,0,0
1649428814.8097649,-0.01043701171875,-0.0018310546875,0.9993896484375,0.9994458231334582,2.197265625,0.91552734375,-21.484375,30.679137782336653,0,0,0
1649428814.8166478,-0.00567626953125,-0.009521484375,0.99591064453125,0.995972334249875,0.8544921875,-2.197265625,-9.46044921875,4.1481460785024895,0,0,0
1649428814.8232703,-0.05401611328125,0.012451171875,0.99169921875,0.9932472565501673,0.0,5.18798828125,-8.23974609375,16.555722847391284,0,0,0
1649428814.8297668,-0.05401611328125,0.012451171875,0.99169921875,0.9932472565501673,4.638671875,2.5634765625,-7.2021484375,2.7316215821045224,0,0,0
1649428814.8363953,-0.02325439453125,0.00732421875,0.99169921875,0.9919988666902162,-2.3193359375,0.732421875,-6.04248046875,8.184630116684696,0,0,0
1649428814.8429089,0.00970458984375,-0.00457763671875,0.99151611328125,0.9915741710625186,-9.6435546875,1.953125,-15.56396484375,22.099615578307098,0,0,0
1649428814.849437,0.00970458984375,-0.00457763671875,0.99151611328125,0.9915741710625186,3.173828125,0.0,-12.8173828125,7.659121772754352,0,0,0
1649428814.8560088,0.019775390625,-0.01080322265625,0.9942626953125,0.9945180154146073,4.82177734375,2.3193359375,-5.859375,6.599139609753666,0,0,0
1649428814.8626275,-0.052001953125,0.0142822265625,0.99444580078125,0.995906941343346,-3.7841796875,-3.90625,-12.3291015625,4.025082298290417,0,0,0
1649428814.8691604,-0.052001953125,0.0142822265625,0.99444580078125,0.995906941343346,-0.732421875,-3.23486328125,-7.99560546875,5.781933512104512,0,0,0
1649428814.8759463,-0.0018310546875,-0.00860595703125,0.992431640625,0.9924706426747955,2.685546875,1.708984375,-2.685546875,8.601627207555095,0,0,0
1649428814.8825352,-0.0025634765625,-0.01409912109375,0.9935302734375,0.993633615003285,2.62451171875,1.8310546875,-6.40869140625,13.519114887182518,0,0,0
1649428814.8891032,-0.0025634765625,-0.01409912109375,0.9935302734375,0.993633615003285,-1.5869140625,-1.0986328125,-8.30078125,5.3352547427979,0,0,0
1649428814.8957417,-0.00860595703125,-0.02142333984375,0.99371337890625,0.9939815397701111,0.0,-4.21142578125,3.60107421875,3.2331354097043525,0,0,0
1649428814.9024026,-0.02325439453125,0.01116943359375,0.99462890625,0.9949634085029919,-0.30517578125,-3.96728515625,8.97216796875,8.363820970376986,0,0,0
1649428814.9093463,-0.02325439453125,0.01116943359375,0.99462890625,0.9949634085029919,2.50244140625,1.8310546875,-6.77490234375,12.759267664450187,0,0,0
1649428814.9159582,0.0216064453125,0.0146484375,0.99810791015625,0.9984492052762175,3.662109375,5.55419921875,-3.60107421875,10.24281946905162,0,0,0
1649428814.92251,0.0091552734375,0.02252197265625,0.98968505859375,0.9899836228381551,4.39453125,4.2724609375,0.42724609375,7.130672288340467,0,0,0
1649428814.9290147,0.0091552734375,0.02252197265625,0.98968505859375,0.9899836228381551,3.2958984375,-1.03759765625,-4.2724609375,9.5966987427227,0,0,0
1649428814.935751,-0.0252685546875,0.0157470703125,0.99462890625,0.9950744350185534,2.99072265625,-2.62451171875,-6.4697265625,3.513632315582093,0,0,0
1649428814.9423695,-0.0062255859375,0.00054931640625,0.99407958984375,0.9940992357972607,5.31005859375,2.685546875,1.15966796875,8.68845685999719,0,0,0
1649428814.948907,-0.0062255859375,0.00054931640625,0.99407958984375,0.9940992357972607,-3.90625,1.03759765625,-4.638671875,8.107573454268575,0,0,0
1649428814.955507,-0.00128173828125,-0.00128173828125,0.99444580078125,0.994447452808596,-2.5634765625,-0.06103515625,1.220703125,6.450408308279494,0,0,0
1649428814.9620905,-0.006591796875,0.00091552734375,0.99407958984375,0.9941018664705729,2.50244140625,-0.8544921875,-3.90625,6.138207073620423,0,0,0
1649428814.968661,-0.006591796875,0.00091552734375,0.99407958984375,0.9941018664705729,-1.03759765625,-1.15966796875,0.67138671875,9.107337069377333,0,0,1
1649428814.975303,-0.0076904296875,0.00238037109375,0.99188232421875,0.9919149933199477,-2.3193359375,0.67138671875,-7.6904296875,6.379852804022588,-4.745754995383322e-05,-1.576938328043398e-07,1
1649428814.9819639,-0.00494384765625,0.00128173828125,0.99407958984375,0.994092709673795,5.615234375,6.89697265625,5.126953125,1.969270728137412,-8.96350247785449e-05,-6.15355039861043e-07,1
1649428814.988558,-0.00494384765625,0.00128173828125,0.99407958984375,0.994092709673795,-7.2021484375,-1.89208984375,-5.615234375,6.927691889445202,-0.00012219321797601879,-1.3128628649217156e-06,1
1649428814.9959073,0.005126953125,0.0003662109375,0.9931640625,0.993177363213792,-1.52587890625,-2.9296875,-15.9912109375,19.35382362557199,-0.00012153840361861512,-2.186781364191606e-06,1
1649428815.0025747,0.05145263671875,-0.015380859375,0.99114990234375,0.99260368404336,1.0986328125,1.52587890625,-4.0283203125,15.412555309607892,7.131602615118027e-05,-2.3579775493883653e-06,1
1649428815.0092206,0.05145263671875,-0.015380859375,0.99114990234375,0.99260368404336,-2.44140625,4.33349609375,-13.61083984375,6.2198986928668685,0.00041194116056431085,-7.583555020201915e-07,1
1649428815.0158458,0.02032470703125,-0.003662109375,0.993896484375,0.994111023183007,-1.0986328125,1.28173828125,-11.23046875,9.509347859073435,0.0006519859452964738,2.7997331615361998e-06,1
1649428815.0224311,0.0201416015625,-0.0260009765625,0.990966796875,0.9915124444021889,0.54931640625,3.11279296875,-10.43701171875,9.274331657924852,0.0007850018155295402,7.5232225076847514e-06,1
1649428815.0290682,0.0201416015625,-0.0260009765625,0.990966796875,0.9915124444021889,3.23486328125,3.90625,11.5966796875,5.53774229600281,0.0009182561771012843,1.3157495325953616e-05,1
1649428815.0356526,0.04925537109375,-0.0633544921875,0.99188232421875,0.9951233231914065,-0.54931640625,0.9765625,8.23974609375,8.428599290016622,0.0011477757361717522,1.9990570539606123e-05,1
1649428815.0424058,0.10455322265625,-0.04193115234375,0.99810791015625,1.0044446217791994,-2.86865234375,-2.01416015625,3.41796875,24.342164028349114,0.0016537231276743114,2.9205992174395623e-05,1
1649428815.0494907,0.10455322265625,-0.04193115234375,0.99810791015625,0.9935854971330426,-0.6103515625,-0.79345703125,-22.5830078125,10.478511643208995,0.0023779397743055597,4.316920303026363e-05,1
1649428815.0561378,0.059326171875,-0.0362548828125,0.99114990234375,0.9935854971330426,0.67138671875,-12.5732421875,31.25,39.003948198275864,0.0029481158999260515,6.169984135644645e-05,1
1649428815.062721,0.1900634765625,-0.12103271484375,0.9913330078125,1.0166189923290094,3.0517578125,12.26806640625,27.28271484375,5.077670150340105,0.003770881550735794,8.386660066228915e-05,1
1649428815.0693028,0.1900634765625,-0.12103271484375,0.9913330078125,1.0148099728484867,-0.3662109375,3.47900390625,-15.93017578125,24.697301102111602,0.005022925717639737,0.00011283122683449984,1
1649428815.076079,0.1783447265625,-0.08953857421875,0.9949951171875,1.0148099728484867,2.197265625,-2.50244140625,27.2216796875,23.332040671463705,0.006234307089471258,0.00014984669501688988,1
1649428815.083081,0.15875244140625,-0.065185546875,0.9942626953125,1.0089647171551217,2.25830078125,-9.3994140625,5.859375,21.887210435329838,0.007398148358333856,0.00019691328516859702,1
1649428815.089687,0.15875244140625,-0.065185546875,0.9942626953125,1.0089647171551217,2.99072265625,-2.44140625,16.845703125,23.272409744849885,0.008493362402077764,0.0002517300980847889,1
1649428815.096288,0.15875244140625,-0.065185546875,0.9942626953125,1.0089647171551217,-1.52587890625,-1.52587890625,19.6533203125,7.912237576416198,0.009538387967040762,0.00031107923297002404,1
1649428815.102873,0.3570556640625,-0.07196044921875,1.00360107421875,1.0676526446667503,4.69970703125,-1.28173828125,13.916015625,33.22320218901957,0.011238808030611835,0.0003795736218029609,1
1649428815.109494,0.3570556640625,-0.07196044921875,1.00360107421875,1.0761610781756297,-6.9580078125,12.26806640625,25.93994140625,17.969127319354893,0.01359040335228201,0.0004613371438606205,1
1649428815.116122,0.39971923828125,-0.053466796875,0.99774169921875,1.0761610781756297,6.4697265625,-2.13623046875,-6.04248046875,22.10677856188737,0.016106308074085973,0.0005600641183787468,1
1649428815.1226888,0.46142578125,-0.1029052734375,0.990234375,1.097300033871803,-1.89208984375,-0.06103515625,50.84228515625,39.87464641844779,0.018950098048662767,0.000675832141203557,1
1649428815.129245,0.46142578125,-0.1029052734375,0.990234375,1.097300033871803,11.962890625,-9.765625,66.89453125,53.21548133573988,0.021976651361910626,0.0008100541483630624,1
1649428815.1359684,0.46142578125,-0.1029052734375,0.990234375,1.097300033871803,-7.080078125,-6.4697265625,9.8876953125,25.317527012796006,0.025051390141015872,0.0009667412568756181,1
1649428815.1425517,0.7049560546875,-0.12322998046875,0.9854736328125,1.2179108949736677,-0.67138671875,20.1416015625,17.39501953125,20.86108068571766,0.028917913179611787,0.0011456479821320628,1
1649428815.1491275,0.7049560546875,-0.12322998046875,0.9854736328125,1.2179108949736677,2.74658203125,8.056640625,28.9306640625,19.335143718417168,0.033553747372934595,0.00135105671518531,1
1649428815.1557174,0.7049560546875,-0.12322998046875,0.9854736328125,1.2179108949736677,0.06103515625,8.48388671875,15.13671875,36.3065819801129,0.038188741193152964,0.0015869054528050673,1
1649428815.162308,0.68572998046875,0.0714111328125,0.9752197265625,1.1943109607970086,-15.44189453125,-11.77978515625,29.96826171875,37.838154279069606,0.04277163799270056,0.0018537040351459914,1
1649428815.1688638,0.68572998046875,0.0714111328125,0.9752197265625,1.1943109607970086,2.38037109375,-1.708984375,35.46142578125,23.920642534496288,0.04728937837353442,0.0021503749566204686,1
1649428815.1754115,0.68572998046875,0.0714111328125,0.9752197265625,1.1943109607970086,-7.4462890625,-32.2265625,-1.46484375,31.27383276989542,0.051778998342342675,0.002474685818803408,1
1649428815.1820674,0.72894287109375,0.0977783203125,1.0133056640625,1.2520809391020524,11.962890625,6.28662109375,6.7138671875,50.65131068873284,0.05644616972131189,0.002831733320148284,1
1649428815.188682,0.72894287109375,0.0977783203125,1.0133056640625,1.1508784239504568,16.66259765625,24.10888671875,2.50244140625,42.96610563984469,0.06125642686674837,0.003220090061620091,1
1649428815.1952891,0.6031494140625,0.08038330078125,0.97686767578125,1.1508784239504568,-12.87841796875,59.14306640625,-13.73291015625,32.36619005040573,0.06570324095810065,0.003643909076419596,1
1649428815.2018282,0.6009521484375,-0.00018310546875,1.0089111328125,1.1743275489199176,22.03369140625,4.69970703125,30.45654296875,32.49507362368534,0.06964485187927494,0.004086969311122938,1
1649428815.2083688,0.6009521484375,-0.00018310546875,1.0089111328125,1.1376596666244676,21.1181640625,54.931640625,-6.28662109375,27.25662246778504,0.07357654779480072,0.004555478321015439,1
1649428815.2151098,0.52294921875,-0.1116943359375,1.004150390625,1.1376596666244676,14.09912109375,25.93994140625,64.5751953125,66.26742943427718,0.0772505331915454,0.005048525584018739,1
1649428815.2217526,0.56854248046875,-0.24517822265625,0.973388671875,1.153619703150485,-3.23486328125,8.36181640625,67.0166015625,67.16965393987302,0.08095376324490644,0.0055852835873582505,1
1649428815.2283254,0.56854248046875,-0.24517822265625,0.973388671875,1.153619703150485,40.4052734375,78.369140625,36.4990234375,108.00080785405048,0.08472113469906617,0.006134194972722405,1
1649428815.2348726,0.56854248046875,-0.24517822265625,0.973388671875,1.153619703150485,-6.77490234375,40.58837890625,21.240234375,42.21109507501488,0.08844445204886142,0.006701215429130915,1
1649428815.24176,0.4244384765625,0.015380859375,0.99664306640625,1.0833660475746238,-4.8828125,47.42431640625,41.748046875,42.47323336314861,0.09169176633440657,0.007290309219055082,1
1649428815.2483807,0.4244384765625,0.015380859375,0.99664306640625,1.0833660475746238,35.5224609375,5.4931640625,63.4765625,48.37316270291393,0.0946420779437176,0.007937921222134582,1
1649428815.2549324,0.4244384765625,0.015380859375,0.99664306640625,1.0833660475746238,-25.45166015625,81.9091796875,48.2177734375,109.49705330158557,0.0974265325567103,0.008567937535512174,1
1649428815.2623472,0.4639892578125,0.0791015625,1.02960205078125,1.132088102370258,20.5078125,31.005859375,58.77685546875,59.05207355243707,0.10067242665536469,0.00929169729421489,1
1649428815.268883,0.44329833984375,-0.0157470703125,0.9810791015625,1.0766975396341973,-4.5166015625,-23.86474609375,49.6826171875,56.4716053479881,0.10369963600533083,0.009973594655709218,1
1649428815.2754598,0.44329833984375,-0.0157470703125,0.9810791015625,1.0766975396341973,63.8427734375,107.177734375,30.8837890625,184.0305610562224,0.10661405320570339,0.01066493700714515,1
1649428815.2828877,0.42333984375,-0.0150146484375,0.96075439453125,1.0499957474128574,48.7060546875,66.83349609375,32.53173828125,44.521956561564025,0.10967124185117427,0.011427913945788978,1
1649428815.289528,0.32025146484375,0.087890625,0.96002197265625,1.0158385455771286,6.4697265625,17.08984375,28.38134765625,24.79905792992717,0.11225651470158482,0.01219949881658771,1
1649428815.296098,0.32025146484375,0.087890625,0.96002197265625,1.0158385455771286,-11.23046875,10.68115234375,-7.26318359375,11.484507086377024,0.11436823449184885,0.012946674115331291,1
1649428815.3026435,0.25653076171875,0.17578125,1.0521240234375,1.0971198841757803,16.54052734375,26.91650390625,11.65771484375,34.038634120022046,0.11626120546861785,0.013703588625051093,1
1649428815.309205,0.252685546875,0.0574951171875,1.0279541015625,1.060115705486476,-29.23583984375,-54.931640625,29.47998046875,51.81212544507158,0.1179249012056971,0.014468714212707942,1
1649428815.3158474,0.252685546875,0.0574951171875,1.0279541015625,1.060115705486476,-41.93115234375,-86.12060546875,-1.708984375,46.84276267010676,0.11960796378843952,0.0152597817711564,1
1649428815.322415,0.1680908203125,-0.0465087890625,0.95947265625,0.9751950417351495,-2.13623046875,37.41455078125,7.9345703125,134.41788687637955,0.12098747653362807,0.016048572450103073,1
1649428815.3289752,0.11480712890625,-0.03314208984375,1.0015869140625,1.0086899530520512,-3.41796875,-41.07666015625,-1.0986328125,39.733746084500545,0.12191819323925301,0.01684771703695133,1
1649428815.3357873,0.11480712890625,-0.03314208984375,1.0015869140625,1.0086899530520512,-19.47021484375,-12.6953125,-15.07568359375,32.1421239500589,0.12266964094305877,0.01764816805478492,1
1649428815.3428771,0.11480712890625,-0.03314208984375,1.0015869140625,1.0086899530520512,-13.00048828125,-40.283203125,47.42431640625,130.2705012366603,0.12348467415722553,0.018521911456124696,1
1649428815.349475,0.04486083984375,0.07415771484375,1.05010986328125,1.0536804954932493,11.3525390625,94.78759765625,5.7373046875,29.670369074383483,0.124030414284789,0.019367910293572987,1
1649428815.3560154,0.04486083984375,0.07415771484375,1.05010986328125,1.0536804954932493,-4.5166015625,5.18798828125,15.44189453125,98.5991732198531,0.12432521869777702,0.020183948700886627,1
1649428815.3625593,0.00091552734375,0.1871337890625,1.0213623046875,1.038364507596329,-16.357421875,41.93115234375,-29.60205078125,56.87124066976135,0.1244745431758929,0.020995544222326072,1
1649428815.3691132,0.01373291015625,0.24664306640625,0.96661376953125,0.9976790939350438,-44.25048828125,100.4638671875,-20.69091796875,192.98115740590777,0.12452258719713427,0.021812206301177903,1
1649428815.375691,0.01373291015625,0.24664306640625,0.96661376953125,0.9976790939350438,48.2177734375,75.13427734375,1.953125,77.56360527990874,0.12461323289608117,0.022634431535600665,1
1649428815.3823,-0.01373291015625,0.29132080078125,0.99810791015625,1.0398441239463083,-10.3759765625,-23.98681640625,-29.72412109375,37.40021024749431,0.12461323453317164,0.023446319714836027,1
1649428815.388935,-0.03497314453125,0.2080078125,0.99481201171875,1.0169273865716004,-31.31103515625,-40.83251953125,-23.0712890625,33.54607903540552,0.12445208886492765,0.02427036096048618,1
1649428815.3959498,-0.03497314453125,0.2080078125,0.99481201171875,1.0169273865716004,5.55419921875,-60.48583984375,-33.14208984375,82.28202362942824,0.12421962686494226,0.02509680543885888,1
1649428815.4026794,-0.01446533203125,0.17413330078125,0.9788818359375,0.9943547158836822,7.9345703125,-13.0615234375,-38.818359375,132.83854117060397,0.1240439821194741,0.025978835012604912,1
1649428815.4092171,-0.08917236328125,0.156005859375,0.9920654296875,1.0082079920896976,59.14306640625,29.6630859375,-39.48974609375,39.43518240053952,0.12370067316078348,0.026799510919850524,1
1649428815.4158244,-0.08917236328125,0.156005859375,0.9920654296875,1.010698300943025,30.2734375,59.87548828125,5.9814453125,34.67237417679168,0.12311256941029569,0.027613394214433033,1
1649428815.4223454,-0.10748291015625,0.01300048828125,1.0048828125,1.010698300943025,36.56005859375,11.29150390625,-11.29150390625,53.897810012652684,0.12246884435444372,0.028417272526611404,1
1649428815.4289145,-0.0823974609375,-0.02471923828125,1.0048828125,1.0085583023147755,7.01904296875,119.5068359375,-11.04736328125,71.0535470242904,0.12184503249591216,0.02921991417253394,1
1649428815.4354725,-0.0823974609375,-0.02471923828125,1.0048828125,1.0085583023147755,8.4228515625,-3.72314453125,-3.35693359375,69.76905724603802,0.12130807337234728,0.030012191489902584,1
1649428815.4420033,-0.0823974609375,-0.02471923828125,1.0048828125,1.0085583023147755,-2.62451171875,50.23193359375,-1.89208984375,37.578825755733085,0.12076765671372414,0.030806037293513593,1
1649428815.4485512,-0.050537109375,-0.1322021484375,0.97357177734375,0.9838055768879032,6.9580078125,-48.27880859375,12.75634765625,91.92409222341102,0.1203329566778848,0.0315944435375466,1
1649428815.4553273,-0.050537109375,-0.1322021484375,0.97357177734375,0.9838055768879032,34.3017578125,141.9677734375,26.67236328125,120.37496122020917,0.12000198308669496,0.03238143471181451,1
1649428815.4618924,-0.03277587890625,-0.21807861328125,1.0601806640625,1.0828737600758243,9.70458984375,-76.96533203125,54.0771484375,96.9274217530331,0.11971950618317351,0.03319422255430442,1
1649428815.46847,-0.017578125,-0.08990478515625,0.988037109375,0.9922747554859052,-25.20751953125,-139.6484375,26.123046875,52.23258013070647,0.11955472102272324,0.03397725545860228,1
1649428815.4750502,-0.017578125,-0.08990478515625,0.988037109375,0.9922747554859052,-30.82275390625,-10.009765625,20.08056640625,52.9962676933866,0.1194385226990562,0.034767175153911686,1
1649428815.4816065,-0.017578125,-0.08990478515625,0.988037109375,0.9922747554859052,9.46044921875,-25.0244140625,38.330078125,62.092795648329826,0.11932294463622384,0.03555211632009472,1
1649428815.488133,0.08111572265625,0.22174072265625,1.0257568359375,1.0525805408702333,27.9541015625,40.58837890625,29.1748046875,82.48968543972731,0.11953024049580563,0.03633140804809996,1
1649428815.4947357,0.08111572265625,0.22174072265625,1.0257568359375,1.0525805408702333,15.7470703125,-68.66455078125,34.3017578125,33.112176986305435,0.12006020068656653,0.03711407626429513,1
1649428815.5012953,0.07745361328125,0.1541748046875,0.9876708984375,1.0026279151465356,0.48828125,16.17431640625,30.09033203125,38.75756451389584,0.12058447366871405,0.03790971244651317,1
1649428815.507836,0.03607177734375,0.08935546875,1.00140380859375,1.0060294035376587,-13.427734375,-33.38623046875,32.470703125,38.12899967225538,0.12095647650130559,0.038701199858760055,1
1649428815.514596,0.03607177734375,0.08935546875,1.00140380859375,1.0060294035376587,-9.09423828125,-32.40966796875,53.8330078125,85.5916171885816,0.12119544975575991,0.03950332049366218,1
1649428815.5212474,0.2457275390625,-0.1201171875,0.95452880859375,0.9929428022912631,56.57958984375,141.29638671875,52.734375,73.03881065202006,0.12213703065208392,0.040316371490126846,1
1649428815.5277824,0.0025634765625,-0.22943115234375,1.00469970703125,1.030566216400745,5.18798828125,-37.59765625,89.84375,78.1372537539771,0.12296126274304697,0.041130004953053495,1
1649428815.5343406,0.0025634765625,-0.22943115234375,1.00469970703125,1.030566216400745,-4.45556640625,-16.7236328125,67.81005859375,81.45166184812389,0.12297801703243749,0.041933706052983945,1
1649428815.5409057,0.000732421875,-0.1951904296875,0.97979736328125,0.999050906298715,-36.0107421875,-3.5400390625,71.83837890625,90.71339702680453,0.12298885011841776,0.042742159429406276,1
1649428815.547497,0.03790283203125,-0.10491943359375,0.96990966796875,0.9763039876190578,-3.72314453125,16.05224609375,75.86669921875,91.31630441676535,0.123115515561949,0.04354901108643226,1
1649428815.5540705,0.03790283203125,-0.10491943359375,0.96990966796875,0.9763039876190578,-17.9443359375,13.24462890625,98.14453125,80.59550829001454,0.12336548984603724,0.04436179880658747,1
1649428815.5606484,-0.046875,0.0128173828125,1.01678466796875,1.0179452892682805,9.58251953125,20.44677734375,118.5302734375,115.95828376441817,0.12333597332326462,0.045173284272737584,1
1649428815.5678267,0.00128173828125,0.122314453125,1.03509521484375,1.0422977367761663,-30.33447265625,2.3193359375,86.0595703125,98.67031026703474,0.12317518912459491,0.046042622751624074,1
1649428815.5743873,0.00128173828125,0.122314453125,1.03509521484375,1.0281155048094228,27.40478515625,-31.55517578125,62.3779296875,59.96899007100153,0.12318378721101908,0.046868928636721915,1
1649428815.5809581,-0.11663818359375,0.13458251953125,1.0125732421875,1.0281155048094228,26.67236328125,103.69873046875,72.81494140625,77.23072347588854,0.12280584300606279,0.04767487629775057,1
1649428815.58751,-0.110595703125,0.0966796875,0.9521484375,0.9634132127796993,13.73291015625,-44.61669921875,81.4208984375,96.56928723749785,0.12205934114899719,0.04847929995718789,1
1649428815.5940754,-0.110595703125,0.0966796875,0.9521484375,0.9634132127796993,58.41064453125,-48.15673828125,90.75927734375,104.74934530394994,0.12133247892052168,0.04927911548224716,1
1649428815.6006186,-0.110595703125,0.0966796875,0.9521484375,0.9634132127796993,17.27294921875,75.8056640625,76.84326171875,77.07821994437714,0.12060959827067563,0.050069811870276815,1
1649428815.607191,-0.38543701171875,0.22320556640625,1.01202392578125,1.1057010632314268,-1.15966796875,35.33935546875,50.9033203125,71.98136068681569,0.11898430415749317,0.0508548620242643,1
1649428815.613873,-0.38543701171875,0.22320556640625,1.01202392578125,1.1057010632314268,46.142578125,-17.7001953125,66.10107421875,77.00796255054699,0.11644348977279151,0.05163083618760325,1
1649428815.6209803,-0.38543701171875,0.22320556640625,1.01202392578125,1.1057010632314268,-0.30517578125,10.986328125,50.10986328125,80.32970915743977,0.11379083875362994,0.05242309446540616,1
1649428815.6275938,-0.626953125,0.2142333984375,0.99554443359375,1.195857386653127,16.9677734375,-1.5869140625,57.861328125,60.17400925307628,0.11028647040075157,0.05319873362102242,1
1649428815.6342087,-0.626953125,0.2142333984375,0.99554443359375,1.3036772091392306,15.31982421875,-15.7470703125,59.08203125,109.49878840124539,0.10614879000058863,0.05391293369368877,1
1649428815.6407416,-0.717041015625,0.18035888671875,1.07373046875,1.3036772091392306,-1.64794921875,-2.25830078125,57.31201171875,68.1639193120726,0.10172713264182676,0.05459683258526713,1
1649428815.6473503,-0.705322265625,0.0933837890625,0.867919921875,1.1222678028142652,-1.46484375,-14.83154296875,61.6455078125,64.88734698541185,0.09707579245150555,0.0552469478178731,1
1649428815.6539245,-0.705322265625,0.0933837890625,0.867919921875,1.3228728535548329,-8.9111328125,52.91748046875,62.01171875,54.72893507591051,0.09241333471436519,0.05587324666743204,1
1649428815.6604824,-0.84393310546875,0.091552734375,1.01458740234375,1.3228728535548329,2.9296875,-24.90234375,79.77294921875,47.66720661472179,0.08733318703161785,0.056462651676423614,1
1649428815.6670353,-0.89263916015625,0.1439208984375,1.02374267578125,1.3658575919426104,-3.35693359375,-6.34765625,63.17138671875,59.451218673480604,0.08162349125632318,0.05701816626762393,1
1649428815.6736982,-0.89263916015625,0.1439208984375,1.02374267578125,1.4039973933099428,42.29736328125,-13.0615234375,43.39599609375,55.61967384899111,0.0757210925585241,0.05753837113206878,1
1649428815.680275,-0.9415283203125,0.2900390625,1.00030517578125,1.4039973933099428,-2.44140625,23.193359375,22.39990234375,29.879872794569938,0.06966602358443197,0.058018332218264114,1
1649428815.6868167,-1.029052734375,0.322265625,0.9627685546875,1.4455891370221217,16.2353515625,-18.5546875,41.07666015625,21.01365175874685,0.06319209569483064,0.058454809510946906,1
1649428815.693371,-1.029052734375,0.322265625,0.9627685546875,1.270038815784228,8.60595703125,-2.74658203125,26.9775390625,34.382355509925716,0.05646251971484162,0.05884605516768422,1
1649428815.7004943,-0.8192138671875,0.07598876953125,0.967529296875,1.270038815784228,23.92578125,8.9111328125,11.16943359375,47.16564512354109,0.05040188731800299,0.05919647316841241,1
1649428815.7075012,-0.74285888671875,0.10968017578125,1.06439208984375,1.3026126006830934,14.34326171875,-6.65283203125,34.912109375,52.312398887636824,0.04467600584757747,0.05954498750320412,1
1649428815.7142916,-0.77215576171875,0.210205078125,0.99114990234375,1.2738872886331136,7.32421875,11.3525390625,1.89208984375,43.95433968968512,0.03947786670323694,0.05983372632134386,1
1649428815.7208364,-0.77215576171875,0.210205078125,0.99114990234375,1.2738872886331136,-44.98291015625,7.99560546875,-14.16015625,34.13573572690496,0.03427346488024341,0.0600822717467428,1
1649428815.727364,-0.77215576171875,0.210205078125,0.99114990234375,1.2738872886331136,4.82177734375,-5.06591796875,23.4375,17.753258453066305,0.02922664947254816,0.06028979034039593,1
1649428815.7338839,-0.61761474609375,0.0640869140625,0.98931884765625,1.1680354829689001,6.77490234375,8.056640625,16.41845703125,26.54720595379716,0.024699122564925347,0.06046546710324384,1
1649428815.74046,-0.61761474609375,0.0640869140625,0.98931884765625,1.1680354829689001,-12.14599609375,-19.47021484375,3.5400390625,9.731614972218063,0.020668720091634896,0.060613496814651585,1
1649428815.7476783,-0.494384765625,0.075439453125,0.94097900390625,1.0656213649145196,-9.09423828125,-21.728515625,10.1318359375,13.82968290357133,0.016680367160006426,0.06074745491451036,1
1649428815.7546465,-0.5079345703125,0.1241455078125,0.99591064453125,1.1248322749277855,-10.8642578125,4.0283203125,-8.6669921875,16.88303473598615,0.013316006166860461,0.06084814002028293,1
1649428815.7612262,-0.5079345703125,0.1241455078125,0.99591064453125,1.1248322749277855,-2.44140625,10.6201171875,7.080078125,8.879514016371978,0.00981921367929317,0.060927775339165116,1
1649428815.7677388,-0.495849609375,0.08441162109375,1.02191162109375,1.138988813913232,6.65283203125,4.39453125,25.146484375,19.352668690549297,0.00652256968896836,0.06098144528438077,1
1649428815.774431,-0.38671875,0.07232666015625,1.0147705078125,1.0883665379351568,0.9765625,-0.732421875,37.65869140625,30.302956248684186,0.0036515897372737527,0.061014541652982486,1
1649428815.7811534,-0.38671875,0.07232666015625,1.0147705078125,1.0883665379351568,-3.5400390625,-2.8076171875,3.7841796875,11.052083224273499,0.0010241396958008409,0.06103042560675102,1
1649428815.7879117,-0.38671875,0.07232666015625,1.0147705078125,1.0883665379351568,0.8544921875,-1.8310546875,7.080078125,18.08670553137956,-0.0015904022147879004,0.0610285108751119,1
1649428815.7945423,-0.07763671875,0.00640869140625,1.0067138671875,1.0097233986649108,4.39453125,-2.99072265625,0.48828125,5.293898272098641,-0.0031358720152638853,0.06101278086958192,1
1649428815.801212,-0.07763671875,0.00640869140625,1.0067138671875,1.0097233986649108,4.82177734375,2.44140625,-11.29150390625,4.175447113400163,-0.0036515616229735315,0.06099023864312894,1
1649428815.8078465,-0.03643798828125,0.09063720703125,1.005615234375,1.0103488654398025,-4.69970703125,-11.474609375,15.80810546875,4.678256139146695,-0.004031946271425113,0.06096461781511765,1
1649428815.814574,-0.0911865234375,0.08935546875,0.98931884765625,0.9975225131193984,-0.42724609375,5.126953125,-0.06103515625,13.892572298642657,-0.004455124442756642,0.06093647633182091,1
1649428815.8212206,-0.0911865234375,0.08935546875,0.98931884765625,0.9975225131193984,-2.25830078125,2.197265625,11.41357421875,11.971295576579413,-0.005067903905001003,0.06090447864197655,1
1649428815.8278854,0.03167724609375,-0.0142822265625,0.993896484375,0.9945037212442451,2.5634765625,0.244140625,6.7138671875,6.84573969375486,-0.0052654325336334296,0.060870180807763664,1
1649428815.8345144,0.0908203125,-0.0098876953125,0.99481201171875,0.9989980151837624,-4.08935546875,-1.0986328125,4.8828125,5.667402663772764,-0.004857195344811771,0.06083644598728215,1
1649428815.8411849,0.0908203125,-0.0098876953125,0.99481201171875,0.9989980151837624,0.42724609375,-3.5400390625,-2.197265625,10.081152941620292,-0.004254996812960599,0.060806236067340744,1
1649428815.8478343,0.01519775390625,0.0443115234375,1.002685546875,1.0037792529959786,2.86865234375,-2.38037109375,4.21142578125,14.655302346506646,-0.003901161253452301,0.060779014869570464,1
1649428815.8544357,0.05804443359375,-0.0142822265625,0.99609375,0.9978857134240696,1.03759765625,4.0283203125,2.3193359375,15.596482956701092,0,0,0
1649428815.8622391,0.05804443359375,-0.0142822265625,0.99609375,0.9922071928037414,0.0,-1.77001953125,-19.775390625,13.584950547786445,0,0,0
1649428815.8688202,0.0205078125,0.06207275390625,0.99005126953125,0.9922071928037414,-3.72314453125,5.06591796875,10.1318359375,5.983624742454816,0,0,0
1649428815.8754342,-0.028564453125,-0.0340576171875,0.9913330078125,0.992329069235301,6.77490234375,4.8828125,6.7138671875,6.410144459529357,0,0,0
1649428815.8823106,-0.028564453125,-0.0340576171875,0.9913330078125,0.992329069235301,3.41796875,2.25830078125,-3.0517578125,9.164424137872704,0,0,0
1649428815.8888805,-0.028564453125,-0.0340576171875,0.9913330078125,0.992329069235301,-2.44140625,4.69970703125,-3.23486328125,3.42123692803748,0,0,0
1649428815.8954442,-0.01922607421875,-0.00823974609375,0.9935302734375,0.9937504412991965,0.91552734375,-0.9765625,-7.9345703125,9.682107470509486,0,0,0
1649428815.9021647,-0.01922607421875,-0.00823974609375,0.9935302734375,0.9937504412991965,2.62451171875,-1.28173828125,1.46484375,5.150513781686958,0,0,0
1649428815.9097555,-0.01922607421875,-0.00823974609375,0.9935302734375,0.9937504412991965,0.79345703125,-2.01416015625,-29.052734375,20.96208879321138,0,0,0
1649428815.9166741,-0.05419921875,-0.00384521484375,0.99114990234375,0.9926381364355946,-1.953125,-10.07080078125,-6.65283203125,16.537036034613006,0,0,0
1649428815.9232748,-0.0186767578125,0.00933837890625,0.9935302734375,0.9937496821834848,0.06103515625,3.84521484375,-0.79345703125,13.598106826115743,0,0,0
1649428815.9298077,-0.0186767578125,0.00933837890625,0.9935302734375,0.9937496821834848,-1.8310546875,-3.41796875,3.7841796875,4.992213146161751,0,0,0
1649428815.936305,-0.0186767578125,0.00933837890625,0.9935302734375,0.9937496821834848,-0.732421875,-2.01416015625,2.197265625,9.436003572675151,0,0,0
1649428815.9427717,0.0029296875,-0.0179443359375,0.9942626953125,0.9944289263447452,3.41796875,1.5869140625,-13.3056640625,13.649786408119146,0,0,0
1649428815.9492986,0.0029296875,-0.0179443359375,0.9942626953125,0.9944289263447452,1.28173828125,3.84521484375,-5.92041015625,12.32260353397796,0,0,0
1649428815.9559205,0.02783203125,-0.02728271484375,0.990234375,0.9910010524335415,-0.30517578125,4.33349609375,-14.95361328125,8.482349723071634,0,0,0
1649428815.9624748,0.01116943359375,0.0032958984375,0.9931640625,0.9932323364826678,2.197265625,-5.06591796875,8.23974609375,11.626997017324998,0,0,0
1649428815.9690204,0.01116943359375,0.0032958984375,0.9931640625,0.9932323364826678,-4.7607421875,2.5634765625,0.244140625,5.076202615583923,0,0,0
1649428815.9755352,0.01226806640625,-0.04486083984375,0.9818115234375,0.9829124416546468,-0.3662109375,0.06103515625,1.77001953125,7.278554343715988,0,0,0
1649428815.9821153,0.04815673828125,-0.0494384765625,1.001953125,1.0043272868462627,4.638671875,0.91552734375,10.498046875,3.2452111909322374,0,0,0
1649428815.9886682,0.04815673828125,-0.0494384765625,1.001953125,1.0043272868462627,7.8125,0.3662109375,6.34765625,6.05510587169722,0,0,0
1649428815.9953322,-0.04559326171875,0.00897216796875,0.99169921875,0.9927872812347941,-1.89208984375,6.2255859375,12.75634765625,9.063052785391175,0,0,0
1649428816.002012,-0.07891845703125,-0.01226806640625,0.99334716796875,0.996552670171064,2.25830078125,3.60107421875,0.1220703125,4.585767518618613,0,0,0
1649428816.0085237,-0.07891845703125,-0.01226806640625,0.99334716796875,0.996552670171064,0.18310546875,-1.0986328125,-7.568359375,8.571257199265894,0,0,0
1649428816.0154767,-0.03460693359375,-0.0428466796875,0.9979248046875,0.9994435419890363,6.53076171875,9.27734375,3.662109375,10.062659469667713,0,0,0
1649428816.0222938,-0.15509033203125,0.03424072265625,0.99334716796875,1.0059642311181456,1.89208984375,4.82177734375,11.5966796875,13.91360613392056,0,0,0
1649428816.0288103,-0.15509033203125,0.03424072265625,0.99334716796875,1.0059642311181456,1.5869140625,8.60595703125,28.076171875,46.996634345076096,0,0,0
1649428816.0355728,-0.15509033203125,0.03424072265625,0.99334716796875,1.0059642311181456,2.3193359375,-3.662109375,-6.103515625,23.69021231087182,0,0,0
1649428816.0422018,-0.160400390625,0.1431884765625,0.97998046875,1.0032910566054158,3.173828125,-8.97216796875,-8.7890625,14.610240727033476,0,0,0
1649428816.0487459,-0.160400390625,0.1431884765625,0.97998046875,1.0032910566054158,2.3193359375,0.6103515625,-2.86865234375,13.61083984375,0,0,0
1649428816.055402,-0.160400390625,0.1431884765625,0.97998046875,1.0032910566054158,5.92041015625,4.2724609375,-10.31494140625,9.376597268412441,0,0,0
1649428816.062007,-0.283447265625,0.13916015625,0.970458984375,1.0205383588243855,14.6484375,33.87451171875,-16.9677734375,7.4292597923354196,0,0,0
1649428816.0685585,-0.283447265625,0.13916015625,0.970458984375,1.0205383588243855,16.9677734375,1.15966796875,-37.65869140625,42.01373944461751,0,0,0
1649428816.0752275,-0.327392578125,0.18914794921875,1.04388427734375,1.110250976757272,-4.0283203125,-10.68115234375,9.765625,18.409866541172057,0,0,0
1649428816.0818312,-0.37939453125,0.08770751953125,0.98272705078125,1.0570644614506466,7.2021484375,9.3994140625,-13.36669921875,12.75079779840357,0,0,0
1649428816.0883381,-0.37939453125,0.08770751953125,0.98272705078125,1.0570644614506466,-1.52587890625,14.0380859375,-33.50830078125,24.709742099577024,0,0,0
1649428816.094832,-0.37939453125,0.08770751953125,0.98272705078125,1.0570644614506466,-5.0048828125,-20.6298828125,-10.19287109375,5.495876066645717,0,0,0
1649428816.1013901,-0.284912109375,0.12176513671875,1.0030517578125,1.0498164065394453,-5.67626953125,-10.3759765625,-17.63916015625,26.02281682955758,0,0,0
1649428816.10793,-0.284912109375,0.12176513671875,1.0030517578125,1.0498164065394453,-11.5966796875,-23.37646484375,-28.9306640625,39.07627816394821,0,0,0
1649428816.1146975,-0.284912109375,0.12176513671875,1.0030517578125,1.0498164065394453,-12.39013671875,-59.26513671875,-18.73779296875,73.53449665396876,0,0,0
1649428816.1213405,-0.2896728515625,-0.00750732421875,0.9957275390625,1.0370342583042944,8.85009765625,-10.31494140625,-32.16552734375,56.98699932786315,0,0,0
1649428816.1278245,-0.2896728515625,-0.00750732421875,0.9957275390625,1.0370342583042944,46.630859375,-64.208984375,-13.36669921875,67.87375575272257,0,0,0
1649428816.1344454,-0.2896728515625,-0.00750732421875,0.9957275390625,1.0370342583042944,-24.0478515625,-50.1708984375,-24.10888671875,49.20459574066722,0,0,0
1649428816.1410034,-0.24920654296875,0.06463623046875,1.015869140625,1.0479846631615468,-5.2490234375,-27.40478515625,-15.93017578125,78.49047528481317,0,0,0
1649428816.147555,-0.24920654296875,0.06463623046875,1.015869140625,1.0479846631615468,-8.85009765625,-35.94970703125,-12.87841796875,105.96337716924288,0,0,0
1649428816.1541457,-0.24920654296875,0.06463623046875,1.015869140625,1.0479846631615468,-15.44189453125,-39.306640625,-13.0615234375,31.431149912621905,0,0,0
1649428816.1606429,-0.21331787109375,0.12945556640625,1.01129150390625,1.0416207388845988,-30.45654296875,-49.6826171875,-34.1796875,60.509054615725205,0,0,0
1649428816.167248,-0.21331787109375,0.12945556640625,1.01129150390625,1.0416207388845988,-50.537109375,-23.86474609375,-43.64013671875,77.47135905973053,0,0,0
1649428816.173835,-0.31768798828125,0.19134521484375,0.99847412109375,1.0651240395539503,-59.326171875,4.2724609375,-41.9921875,91.80910962325905,0,0,0
1649428816.1803353,-0.12890625,0.06060791015625,1.04736328125,1.057005195338858,-78.2470703125,-23.01025390625,-35.64453125,83.11879088222015,0,0,0
1649428816.1918645,-0.12890625,0.06060791015625,1.04736328125,1.057005195338858,-60.791015625,-13.18359375,-45.95947265625,82.06339614971539,0,0,0
1649428816.1990466,-0.1644287109375,0.01666259765625,1.0147705078125,0.9720054425466894,-37.9638671875,-70.80078125,-18.49365234375,44.94396993195756,0,0,0
1649428816.206514,-0.0831298828125,0.0728759765625,0.9656982421875,0.9720054425466894,-10.43701171875,-77.0263671875,-40.8935546875,100.58715967713576,0,0,0
1649428816.2140849,-0.03570556640625,0.071044921875,0.9554443359375,0.9587471759914948,20.08056640625,-52.79541015625,-8.23974609375,45.24537409009436,0,0,0
1649428816.2216525,-0.09210205078125,0.0853271484375,0.98858642578125,0.996527285756659,48.828125,-30.2734375,-30.57861328125,35.59197509667414,0,0,0
1649428816.2292993,-0.09210205078125,0.0853271484375,0.98858642578125,0.996527285756659,43.9453125,-47.2412109375,-20.32470703125,97.71210027088097,0,0,0
1649428816.236277,-0.09210205078125,0.0853271484375,0.98858642578125,0.996527285756659,57.31201171875,-64.3310546875,-29.9072265625,72.24097991524822,0,0,0
1649428816.2429953,-0.08001708984375,0.11590576171875,0.919189453125,0.9299172710531314,66.46728515625,-5.92041015625,-32.8369140625,60.13898973429591,0,0,0
1649428816.2498043,-0.22650146484375,0.1505126953125,1.04681396484375,1.081562047234688,33.8134765625,4.82177734375,-43.5791015625,77.02571427299793,0,0,0
1649428816.2565985,-0.22650146484375,0.1505126953125,1.04681396484375,1.081562047234688,37.53662109375,52.55126953125,-37.109375,111.30290833368122,0,0,0
1649428816.263653,-0.22650146484375,0.1505126953125,1.04681396484375,1.081562047234688,-33.26416015625,-69.39697265625,-28.50341796875,51.47471468977485,0,0,0
1649428816.2706192,-0.2113037109375,0.07763671875,0.995361328125,1.0205003144933318,8.544921875,63.8427734375,-39.85595703125,39.02762763789037,0,0,0
1649428816.2788775,-0.2113037109375,0.07763671875,0.995361328125,1.0205003144933318,5.2490234375,-7.87353515625,-46.630859375,138.69806499045913,0,0,0
1649428816.2868052,-0.08056640625,0.13385009765625,0.9847412109375,0.9970566919575243,9.765625,-17.578125,-19.6533203125,151.58927376216522,0,0,0
1649428816.2939706,-0.08056640625,0.13385009765625,0.9847412109375,0.9970566919575243,-3.5400390625,-9.21630859375,-40.6494140625,40.064966149681815,0,0,0
1649428816.3010042,-0.00494384765625,0.06903076171875,1.0521240234375,1.054397765735224,-14.58740234375,-2.62451171875,-37.17041015625,51.45108004530932,0,0,0
1649428816.308132,-0.00494384765625,0.06903076171875,1.0521240234375,0.9607595767475214,45.34912109375,-50.23193359375,-44.25048828125,59.97774839054936,0,0,0
1649428816.3151925,-0.013916015625,0.03497314453125,0.96002197265625,0.9607595767475214,-6.89697265625,97.22900390625,-68.603515625,60.99110348699418,0,0,0
1649428816.3218334,-0.013916015625,0.03497314453125,0.96002197265625,0.9607595767475214,27.03857421875,116.63818359375,-55.419921875,71.46546994560735,0,0,0
1649428816.32854,-0.0234375,-0.0172119140625,1.0048828125,1.005303453316388,33.203125,-11.5966796875,-34.24072265625,47.88214815425471,0,0,0
1649428816.3357575,-0.0234375,-0.0172119140625,1.0048828125,1.005303453316388,-6.53076171875,78.7353515625,-46.38671875,41.554543515189195,0,0,0
1649428816.3432202,0.00750732421875,-0.02325439453125,0.99609375,0.9963934391449007,7.9345703125,14.70947265625,-13.97705078125,41.329635058904756,0,0,0
1649428816.3498864,0.0216064453125,-0.009521484375,1.0283203125,1.0285913485169138,29.78515625,73.66943359375,-20.56884765625,42.58544054093065,0,0,0
1649428816.3563817,0.0216064453125,-0.009521484375,1.0283203125,1.0285913485169138,-7.080078125,-18.1884765625,-10.19287109375,128.80063787940625,0,0,0
1649428816.3624082,0.0333251953125,-0.031494140625,1.0396728515625,1.040683471480365,-37.59765625,12.3291015625,-20.8740234375,89.22089412137075,0,0,0
1649428816.3683906,0.00494384765625,-0.03424072265625,0.9957275390625,0.9963283599120989,9.3994140625,-125.8544921875,-25.32958984375,37.360994674819466,0,0,0
1649428816.374379,0.00494384765625,-0.03424072265625,0.9957275390625,0.9963283599120989,8.9111328125,-30.6396484375,-17.15087890625,43.18542469685916,0,0,0
1649428816.3803806,0.00494384765625,-0.03424072265625,0.9957275390625,0.9963283599120989,-23.13232421875,-57.0068359375,-8.4228515625,143.53898669686058,0,0,0
1649428816.386359,0.00494384765625,-0.03424072265625,0.9957275390625,0.9336799757335283,22.52197265625,2.99072265625,-22.8271484375,108.74801833989052,0,0,0
1649428816.3923957,-0.104736328125,-0.041015625,0.9268798828125,0.9336799757335283,22.8271484375,38.6962890625,-29.72412109375,22.665995113391464,0,0,0
1649428816.398418,-0.01904296875,0.025634765625,1.08837890625,1.0888472893098502,48.828125,-182.80029296875,-38.26904296875,69.85923582612203,0,0,0
1649428816.4044445,-0.01904296875,0.025634765625,1.08837890625,1.0888472893098502,2.8076171875,49.74365234375,-14.34326171875,86.03569402970449,0,0,0
1649428816.4104905,-0.07196044921875,0.00347900390625,0.94866943359375,0.9514011267362629,-28.6865234375,-21.78955078125,-22.5830078125,110.48722157232318,0,0,0
1649428816.416505,-0.07196044921875,0.00347900390625,0.94866943359375,0.957099869272745,5.79833984375,24.658203125,-41.3818359375,38.513231957551845,0,0,0
1649428816.422507,0.00311279296875,0.002197265625,0.95709228515625,0.957099869272745,12.51220703125,104.98046875,-51.3916015625,32.616424551623815,0,0,0
1649428816.4285407,0.0289306640625,0.0029296875,0.9942626953125,0.9946878272513553,3.662109375,19.6533203125,-17.4560546875,114.07601328714725,0,0,0
1649428816.434556,0.0289306640625,0.0029296875,0.9942626953125,0.9946878272513553,8.9111328125,-30.3955078125,-30.21240234375,43.30284110311585,0,0,0
1649428816.4405727,0.0897216796875,-0.03515625,1.04461669921875,1.049051948192598,17.9443359375,28.6865234375,-3.90625,49.46672550861547,0,0,0
1649428816.44658,0.0897216796875,-0.03515625,1.04461669921875,1.049051948192598,-10.8642578125,-28.86962890625,-12.02392578125,27.309259733128584,0,0,0
1649428816.452575,0.0897216796875,-0.03515625,1.04461669921875,1.049051948192598,1.0986328125,70.98388671875,-20.263671875,129.13435203607983,0,0,0
1649428816.4586096,0.07562255859375,-0.150146484375,0.98345947265625,0.9977250485458139,3.5400390625,-53.03955078125,-1.708984375,74.87444103013216,0,0,0
1649428816.4646273,0.07562255859375,-0.150146484375,0.98345947265625,0.9977250485458139,-1.5869140625,-17.333984375,1.220703125,37.448985447529424,0,0,0
1649428816.4706604,0.01739501953125,-0.1102294921875,0.9697265625,0.9761263922620231,-16.6015625,-59.02099609375,8.48388671875,115.55170558506737,0,0,0
1649428816.4772952,0.00787353515625,-0.02215576171875,1.02850341796875,1.0287721570428487,2.9296875,20.1416015625,5.615234375,52.88057899576885,0,0,0
1649428816.483289,0.00787353515625,-0.02215576171875,1.02850341796875,1.0287721570428487,15.93017578125,73.2421875,-14.2822265625,46.31092504894177,0,0,0
1649428816.4892726,0.00787353515625,-0.02215576171875,1.02850341796875,1.0287721570428487,24.35302734375,44.0673828125,-32.71484375,22.53949897118715,0,0,0
1649428816.4953232,0.00787353515625,-0.02215576171875,1.02850341796875,0.9911511201144548,21.240234375,-43.76220703125,-14.95361328125,158.1097197594396,0,0,0
1649428816.5013301,-0.017578125,0.00750732421875,0.990966796875,0.9911511201144548,40.58837890625,4.2724609375,-38.818359375,80.6885227312888,0,0,0
1649428816.5073712,-0.056396484375,0.05621337890625,0.98126220703125,0.9844876974171678,-38.39111328125,-45.10498046875,-34.5458984375,54.45037249226662,0,0,0
1649428816.514017,-0.056396484375,0.05621337890625,0.98126220703125,0.9844876974171678,14.58740234375,11.29150390625,-19.04296875,34.034967581984446,0,0,0
1649428816.520025,-0.056396484375,0.05621337890625,0.98126220703125,0.9844876974171678,42.724609375,64.27001953125,-45.8984375,125.51971516830034,0,0,0
1649428816.526013,-0.0032958984375,0.02508544921875,1.02593994140625,1.0262518726324823,-12.63427734375,28.25927734375,-41.015625,76.24163245581403,0,0,0
1649428816.5320313,-0.0032958984375,0.02508544921875,1.02593994140625,1.0262518726324823,21.78955078125,-14.892578125,-32.28759765625,60.61516264119489,0,0,0
1649428816.53805,0.06683349609375,0.00238037109375,1.1019287109375,1.1039561886030793,10.07080078125,6.34765625,-34.11865234375,68.66186518185559,0,0,0
1649428816.5440822,0.06683349609375,0.00238037109375,1.1019287109375,1.1039561886030793,-68.54248046875,-58.349609375,0.0,104.20276095975525,0,0,0
1649428816.5501246,0.05950927734375,-0.15362548828125,0.85235595703125,0.8681318000317036,60.9130859375,-40.52734375,-33.38623046875,31.260071561985267,0,0,0
1649428816.5561595,0.03314208984375,-0.16900634765625,1.09039306640625,1.1039105864761607,12.02392578125,35.400390625,-8.9111328125,83.85244253214432,0,0,0
1649428816.5621908,0.03314208984375,-0.16900634765625,1.09039306640625,1.1039105864761607,38.4521484375,88.19580078125,-26.06201171875,183.3287822815971,0,0,0
1649428816.569434,0.01116943359375,-0.195556640625,0.960205078125,0.9799800753058084,20.44677734375,79.833984375,-13.48876953125,44.4073442328316,0,0,0
1649428816.5754535,0.03350830078125,-0.13421630859375,1.0528564453125,1.0619056069867288,11.65771484375,16.29638671875,-19.8974609375,61.91606728951214,0,0,0
1649428816.5814288,0.03350830078125,-0.13421630859375,1.0528564453125,1.0619056069867288,9.27734375,17.88330078125,-1.15966796875,19.045413911777768,0,0,0
1649428816.5874462,0.08587646484375,-0.1021728515625,0.9539794921875,0.963270953742919,28.62548828125,-4.7607421875,-15.2587890625,64.46809305881654,0,0,0
1649428816.593427,0.08587646484375,-0.1021728515625,0.9539794921875,0.963270953742919,-6.53076171875,-68.9697265625,14.6484375,72.23853041512501,0,0,0
1649428816.5994112,0.0238037109375,-0.03204345703125,1.0404052734375,1.041170751024763,49.98779296875,24.71923828125,-18.6767578125,106.8644713909915,0,0,0
1649428816.6054149,0.04339599609375,-0.04412841796875,0.9990234375,1.0009387385967783,12.02392578125,93.81103515625,-12.02392578125,102.71622022340091,0,0,0
1649428816.6114268,0.04339599609375,-0.04412841796875,0.9990234375,1.0009387385967783,-3.7841796875,30.33447265625,-11.53564453125,43.26609122265164,0,0,0
1649428816.6180692,0.01263427734375,-0.02947998046875,0.98382568359375,0.9843483478480299,4.2724609375,-28.1982421875,-8.85009765625,131.8374492417304,0,0,0
1649428816.6242692,0.01263427734375,-0.02947998046875,0.98382568359375,0.9956649249902714,-28.80859375,5.67626953125,3.72314453125,39.53900574003772,0,0,0
1649428816.6304257,0.02288818359375,0.047607421875,0.9942626953125,0.9956649249902714,11.41357421875,-18.06640625,-23.74267578125,57.419032071899885,0,0,0
1649428816.6371465,0.00714111328125,0.0926513671875,1.0330810546875,1.037252012239478,-13.00048828125,-42.724609375,3.0517578125,47.914541411607146,0,0,0
1649428816.6432104,0.00714111328125,0.0926513671875,1.0330810546875,1.037252012239478,6.53076171875,-110.41259765625,-4.45556640625,32.83833213495277,0,0,0
1649428816.6492505,-0.0150146484375,0.09356689453125,0.95672607421875,0.961407813838615,-10.07080078125,-54.931640625,4.8828125,89.28976092364552,0,0,0
1649428816.6552722,0.03021240234375,0.0377197265625,0.98785400390625,0.9890354392340751,-9.82666015625,-62.8662109375,15.07568359375,65.08720494887157,0,0,0
1649428816.6612957,0.03021240234375,0.0377197265625,0.98785400390625,0.9890354392340751,-6.40869140625,-62.3779296875,-3.5400390625,37.236297791491424,0,0,0
1649428816.6672885,0.02471923828125,-0.04449462890625,1.0191650390625,1.0204352941710597,-3.662109375,-45.8984375,-2.62451171875,39.28336645052656,0,0,0
1649428816.6733406,0.02471923828125,-0.04449462890625,1.0191650390625,1.0204352941710597,-9.09423828125,-27.28271484375,9.82666015625,29.01738685184891,0,0,0
1649428816.6793568,0.02471923828125,-0.04449462890625,1.0191650390625,1.0204352941710597,-5.06591796875,-15.5029296875,15.5029296875,25.124994372846437,0,0,0
1649428816.685376,0.06005859375,-0.0791015625,0.983642578125,0.9886439264839316,-13.3056640625,-16.7236328125,5.126953125,18.943723631626206,0,0,0
1649428816.6914086,0.06005859375,-0.0791015625,0.983642578125,0.9886439264839316,-15.9912109375,-8.544921875,13.18359375,21.96875643560497,0,0,0
1649428816.6974108,0.06005859375,-0.0791015625,0.983642578125,0.9886439264839316,-12.20703125,-2.50244140625,6.4697265625,18.312276122772015,0,0,0
1649428816.7034135,0.06005859375,-0.0791015625,0.983642578125,1.0125905592474065,-3.5400390625,3.173828125,-3.84521484375,10.062289253539493,0,0,0
1649428816.709429,0.09210205078125,0.13714599609375,0.9990234375,1.0125905592474065,-3.2958984375,-4.94384765625,-12.8173828125,8.607039146838686,0,0,0
1649428816.7155337,0.1409912109375,0.1688232421875,0.9873046875,1.0115089493542777,5.2490234375,7.50732421875,-8.9111328125,11.168099412290497,0,0,0
1649428816.7215781,0.1409912109375,0.1688232421875,0.9873046875,1.0115089493542777,12.0849609375,-3.0517578125,-17.7001953125,24.41452025938042,0,0,0
1649428816.7276165,0.21990966796875,0.110595703125,0.90399169921875,0.9369058991554285,16.9677734375,52.6123046875,-51.7578125,71.92469413116834,0,0,0
1649428816.7341242,0.2347412109375,0.0703125,1.12445068359375,1.1508417022349797,33.87451171875,20.1416015625,1.77001953125,31.924945931922814,0,0,0
1649428816.740108,0.2347412109375,0.0703125,1.12445068359375,1.1508417022349797,14.34326171875,71.59423828125,-29.84619140625,38.862191650747704,0,0,0
1649428816.7461383,0.25799560546875,-0.00732421875,0.94482421875,0.9794427910593005,11.3525390625,-8.4228515625,-11.3525390625,26.60439777248995,0,0,0
1649428816.752164,0.25799560546875,-0.00732421875,0.94482421875,0.9794427910593005,13.5498046875,-46.7529296875,-1.89208984375,41.73666815704255,0,0,0
1649428816.7581828,0.27850341796875,-0.0721435546875,0.93218994140625,0.9755751806817414,-1.89208984375,-12.51220703125,-9.033203125,37.52217829043118,0,0,0
1649428816.7642274,0.27667236328125,-0.11663818359375,0.9700927734375,1.0154959633358185,-0.244140625,0.8544921875,-11.962890625,42.92073601654686,0,0,0
