"Time (s)","Linear Acceleration x (m/s^2)","Linear Acceleration y (m/s^2)","Linear Acceleration z (m/s^2)","Absolute acceleration (m/s^2)",vx
0.080542987,0.009610742331,-0.02474850416,0.09391021729,0.09759089987,0.00038703894731304135
0.085618716,-0.002155005932,-0.02656525373,0.09423923492,0.09793564293,0.0004059605960414213
0.090672779,0.006397247314,-0.00009328126907,0.1670179367,0.1671404339,0.0004166808736443389
0.095739081,-0.01952078938,0.04193475842,0.1524324417,0.1592960592,0.0003834369599363089
0.1008083,-0.002506196499,0.00746718049,0.05671310425,0.05725745365,0.00032760715227102966
0.105873873,-0.004471987486,0.02823576331,0.0704460144,0.07602564007,0.0003099329020793055
0.110949862,-0.001903831959,0.02571684122,0.06186676025,0.06702593918,0.0002937511073949024
0.116005956,-0.03240379691,0.01713365316,0.1138067245,0.1195639522,0.0002070198091555136
0.12109455,-0.02108037472,0.02913400531,0.08736610413,0.09447755614,0.00007094019172981946
0.126154966,-0.01509389281,0.1360488832,0.1055927277,0.1728784207,-0.000020588229368727
0.131204289,-0.009581655264,0.1628029943,0.006886482239,0.1632300422,-0.00008288563558255389
0.136288873,0.01351201534,0.08989802003,0.03790187836,0.09849254259,-0.00007289351260421994
0.141346945,0.00829616189,0.05319961905,0.04920196533,0.07293736465,-0.000017739847295169696
0.146486841,0.04628616571,0.03682667017,0.0193271637,0.06222661833,0.00012253389635579525
0.15148231,0.04171708226,-0.001464277506,0.05007457733,0.06519142855,0.00034234264492251934
0.156529498,-0.005792319775,-0.04699546099,-0.009330749512,0.0482616536,0.00043300215998108994
0.161603195,0.02408647537,-0.08119943738,0.007088661194,0.0849926823,0.00047941166116103207
0.166663873,0.03222322464,-0.0934125185,0.05249977112,0.1118948649,0.000621894291174635
0.171740175,-0.001073151827,-0.07789376378,0.03187847137,0.08417141455,0.0007009578796350245
0.176809706,-0.01012557745,-0.106785059,0.02365970612,0.1098424227,0.0006725717270198449
0.181866581,-0.01663422585,-0.08866274357,0.04341316223,0.100112348,0.0006049112368635013
0.186927258,-0.02051538229,-0.02991890907,0.03022480011,0.04721822288,0.0005109101531269456
0.191991841,-0.02659219503,-0.01030561328,0.01987743378,0.03476295263,0.00039162003549391723
0.19705981,-0.04860767722,-0.01927760243,0.01222705841,0.0537013333,0.0002010647248104369
0.202125956,-0.04921105504,-0.002472430468,0.02567863464,0.05556287545,-0.00004671726477159779
0.207194706,-0.03137588501,0.01623913646,0.0364074707,0.05073124911,-0.000250954790960817
0.212264185,-0.03733322024,0.04595634341,0.02132892609,0.0629339171,-0.00042511447404764894
0.217324133,-0.008276045322,0.04457995296,0.02994537354,0.05433774496,-0.0005405047300786046
0.222395956,-0.01030984521,-0.01014217734,0.00116443634,0.01450905171,-0.0005876369036164446
0.227560852,-0.002938270569,0.006438553333,0.01740169525,0.01878582978,-0.0006218494737136916
0.232533143,0.01119548082,-0.0007217824459,-0.006370544434,0.01290130215,-0.0006013208476056142
0.237594602,0.004035234451,-0.05416336656,-0.00852394104,0.05497827721,-0.0005627760271631941
0.242658508,0.02960291505,-0.04342240095,-0.01295852661,0.05412726573,-0.00047760581361968853
0.247724081,0.01947680116,-0.03989562392,-0.01028347015,0.04557144226,-0.00035329737097916896
0.252788404,0.03530341387,-0.03409767151,0.04600429535,0.06727092554,-0.00021458501951848136
0.257857883,0.03440830112,-0.02856907248,-0.0135345459,0.046725871,-0.00003788398192058667
0.262921737,0.04757425189,-0.01857432723,0.02652359009,0.05754837883,0.00016968985757436273
0.267989081,0.03935539722,-0.001764327288,0.03291034698,0.05133274861,0.00038994107549419595
0.273053508,0.01736477017,-0.01352378726,0.02980136871,0.03704793708,0.0005335686490814132
0.278122623,0.01227542758,-0.01087036729,0.01273727417,0.02076268674,0.000608693434590159
0.283189029,0.01901453733,0.02919256687,-0.001598358154,0.03487568407,0.0006879572675700652
0.288287623,0.01858612895,0.01689517498,0.0078125,0.02630449169,0.0007838125333156705
0.293319445,0.02051797509,0.01429355145,0.04281997681,0.04958672533,0.0008821949788150514
0.298386112,-0.008017957211,0.04689031839,0.02550983429,0.05397908153,0.0009138616928585207
0.303468404,-0.03373590112,0.01787754893,0.02264976501,0.04439290073,0.0008077590427761325
0.308539498,-0.0143468082,-0.01534345746,0.01280975342,0.02460370653,0.0006858430734079345
0.31359731,-0.004627943039,-0.0174330771,-0.001536369324,0.01810222264,0.00063785771115112
0.318657935,0.01194816828,-0.02883788943,0.005539894104,0.0317028866,0.0006563801685812376
0.323724602,-0.01174151897,-0.0353910625,0.0618391037,0.07221125479,0.0006569036802010121
0.328789706,0.004923671484,-0.05588874221,0.03013038635,0.0636838616,0.0006396371269146479
0.333844654,0.00006639957428,-0.047863096,0.006063461304,0.04824568302,0.0006522494017726031
0.338904289,0.02352854609,-0.03053432703,0.03183841705,0.04999622395,0.0007119403082256478
0.343968352,0.004326760769,-0.02063116431,0.0430431366,0.04792783542,0.0007824708226348012
0.349038404,0.01360484958,-0.001385360956,0.01876449585,0.02321890311,0.0008279279210913857
0.354105852,-0.005426049232,0.003404378891,0.03257656097,0.03320036341,0.0008486507438243216
0.359162362,-0.01011073589,0.03402647376,0.01790618896,0.03975750873,0.0008093697891556994
0.364233195,0.008887380362,0.04048642516,-0.01301956177,0.04344703834,0.0008062680733646422
0.36930981,-0.0007525384426,0.04915824533,-0.02695274353,0.05606736824,0.0008269168036199699
0.374370175,-0.01972076297,0.06247195601,0.0300579071,0.07207726105,0.000775115614668584
0.379436841,-0.02188885212,0.04965671897,0.04609775543,0.07120333308,0.0006697046036437891
0.384519133,0.01145625114,0.05366680026,0.03595638275,0.06560665059,0.0006431938413938661
0.38955606,0.004246145487,0.06465682387,0.03541088104,0.07384080932,0.0006827397541614884
0.394621477,-0.005320459604,0.02363270521,-0.0382642746,0.04528760047,0.0006800188296656926
0.399716789,0.00649446249,-0.03325253725,0.0283946991,0.04420597486,0.0006830097851622277
0.404783195,0.02039512992,-0.02091228962,0.06104373932,0.06767291402,0.0007511265813240164
0.409850123,0.001149207354,-0.03939545155,-0.01774311066,0.04322198811,0.0008057083842115539
0.4148933,-0.01767084002,-0.0387327373,0.05099868774,0.06643304658,0.0007640476252797438
0.419971581,-0.0101467073,-0.05000314116,0.01012420654,0.05201701023,0.0006934149642688659
0.425081164,0.008928239346,-0.02563855052,0.06669139862,0.07200549549,0.0006903020326969642
0.430109237,0.02307400107,-0.0157854259,-0.01455688477,0.03151970956,0.0007707568331845628
0.435167883,-0.01265051961,0.005596637726,0.004539489746,0.0145590167,0.0007971211845814162
0.440234445,-0.01722952724,0.01266729832,-0.0002460479736,0.02138638808,0.0007214266296172013
0.445300331,-0.005097895861,-0.01576581597,0.02340221405,0.0286742588,0.0006648725395654849
0.45037132,0.004463255405,0.02469226718,0.03019714355,0.03926189229,0.0006632634121798193
0.455435904,-0.01694181561,0.03384763002,0.02272319794,0.04414783006,0.0006316640540011787
0.460500695,-0.0001838803291,0.01923623681,0.0153427124,0.0246062074,0.0005882950186706335
0.465563039,-0.002459228039,0.0308829248,0.0009565353394,0.03099544815,0.000581604856776333
0.47064106,-0.03315421939,0.006846278906,0.03880405426,0.05149590688,0.0004911819398129042
0.47569455,0.0003114938736,0.01854819059,0.005204200745,0.01926696935,0.0004081967473279681
0.480762675,0.01686155796,0.02537938952,-0.009062767029,0.0317892953,0.0004517143339900499
0.485841529,0.02133074403,-0.005691468716,0.04549503326,0.0505686811,0.00054870089685561
0.490890904,0.002124071121,-0.01735961437,0.02129554749,0.0275566368,0.0006079169754821506
0.49597757,0.02102577686,-0.0502589643,0.002109527588,0.05452060979,0.0006667947477972108
0.501042414,0.01361268759,-0.02131962776,0.03050518036,0.03962824523,0.00075451395721661
0.506105904,-0.007818460464,-0.01633784175,0.01121139526,0.02130137979,0.0007691834627717242
0.511168143,-0.01011794806,-0.03989627957,0.04661846161,0.06218815771,0.0007237842693966613
0.516234602,0.01130068302,-0.02044981718,0.03663253784,0.04344931862,0.0007267804084880141
0.521296581,-0.0006303787231,-0.0130623281,0.01964950562,0.02360349262,0.000753786836625273
0.526370279,-0.01011773944,-0.01291903853,-0.02558612823,0.03039605511,0.0007265204838113308
0.531436945,-0.01007711887,0.01102510095,0.0007638931274,0.01495609268,0.000675360182824283
0.536494758,-0.01704522967,0.04172560573,0.0007553100586,0.04507922494,0.0006067702993062119
0.541557414,-0.009721726179,0.01279318333,0.01496696472,0.02195876892,0.0005390143544908745
0.546621216,-0.02154248953,0.01503497362,0.05986022949,0.0653710667,0.0004598564554730416
0.551688404,-0.02850285172,0.007771253586,0.004717826843,0.02991760065,0.00033306187915409046
0.556754289,-0.006937861443,0.00543025136,0.03076267242,0.03199943071,0.00024329259055321748
0.561816529,0.01688611507,0.01012411714,0.01859664917,0.02708272494,0.0002684728142735904
0.566881112,0.0001580119133,0.0005439519882,0.02315425873,0.02316118626,0.00031163351215832174
0.571948039,-0.0330644846,-0.03029251099,0.01344013214,0.04681381757,0.00022826616469282288
0.577013664,-0.006609648466,0.005590260029,0.01093673706,0.01394814244,0.0001277790245365955
0.582081373,-0.01136052608,-0.01808363199,0.003721237183,0.02167779752,0.00008224521689742816
0.587144914,-0.008894771338,-0.03446546197,0.02741622925,0.04492921824,0.000030963452425808976
0.592214862,0.005364239216,-0.02216461301,-0.006055831909,0.02359487725,0.000022013645290373826
0.597306529,0.0148434937,-0.002969741821,-0.0036277771,0.01556629174,0.0000734591687069801
0.602352831,-0.006617188454,0.001755475998,-0.01309204102,0.0147739777,0.00009421537901473128
0.607427727,-0.008994758129,0.01366406679,0.01314258575,0.02098427877,0.00005460087638159113
0.612487779,0.007742226124,-0.01499167085,-0.008344650269,0.01882353442,0.00005143193784310764
0.617566425,-0.004103302956,0.02075940371,0.008343696594,0.02274658678,0.000060672339138843356
0.622597258,-0.0158982873,0.006334364414,-0.001227378845,0.01715768546,0.000010360008982662164
0.627693091,0.003276228905,0.008657664061,0.005904197693,0.01097945232,-0.000021799941865922365
0.632748873,-0.01808616519,0.00146111846,0.03197097778,0.03676122494,-0.00005923784651134764
0.637816008,0.02707308531,0.02994948626,0.03169727325,0.05132875224,-0.00003646887777022237
0.642880956,-0.02077397704,0.02969631553,-0.06119060516,0.07111764506,-0.000020516549853264606
0.647944654,-0.003986388445,0.01524716616,-0.04166412354,0.04454510701,-0.00008320605644609712
0.653014966,-0.008666157722,0.01037043333,0.01331806183,0.01897416528,-0.00011528223477664395
0.658081373,0.005589306355,-0.0158970952,-0.005795478821,0.01781980797,-0.00012307652542850887
0.663163404,0.003099828959,-0.003936231136,-0.01762390137,0.01832224753,-0.00010099729791403781
0.668237831,-0.008769243956,0.005651414394,0.01578140259,0.01891800179,-0.00011538181418152797
0.673297414,0.01266610622,0.005708813667,0.03703594208,0.03955605903,-0.00010552356514939022
0.678351581,0.007796764374,-0.02284017205,0.02247428894,0.03297812392,-0.000053812182508657065
0.683419289,-0.01366323233,0.01055854559,0.03653907776,0.04041374774,-0.0000686769558048379
0.688486945,0.005387753248,0.02705016732,0.03623580933,0.04553870129,-0.0000896455964162233
0.693546112,0.005275785923,0.01964908838,0.01455497742,0.02501535446,-0.00006267128367765757
0.698602883,-0.01611122489,0.00988227129,0.002549171448,0.01907168394,-0.00009006745044795601
0.703675539,0.003118664026,-0.0067717731,-0.01885223389,0.02027288087,-0.0001230208463590241
0.708741685,-0.006370276213,-0.004282772541,0.005060195923,0.009193918775,-0.0001312574173963844
0.713806008,0.01742786169,0.02426657081,-0.04961872101,0.05791903225,-0.00010325782516856582
0.718860643,0.005394607782,0.02174791694,0.01731300354,0.02831631642,-0.000045578198678765385
0.723929706,-0.004165261984,-0.009258240461,0.02904891968,0.03077180785,-0.000042462383029341725
0.729127102,0.005358487368,0.0002728998661,0.01692771912,0.01775768948,-0.00003936155061039179
0.73406356,-0.004253745079,0.01210042834,0.02628898621,0.02925107706,-0.00003663479365515577
0.739126841,0.01007172465,-0.009429335594,0.0165643692,0.02155760502,-0.00002190576094503907
0.744193248,0.0194747746,-0.01409897208,0.01880264282,0.03052191404,0.00005294153436780741
0.74941705,-0.002080500126,0.000169724226,-0.02649402618,0.02657613047,0.00009837365726072112
0.754342466,0.007424265146,-0.01170659065,0.00936126709,0.01672714259,0.00011153379012559512
0.75939455,-0.004429131746,0.00502038002,-0.007349014282,0.009941299437,0.00011909962288959729
0.764457831,-0.004407376051,0.002605885267,0.02834606171,0.02880477072,0.00009672876187214643
0.769511737,-0.006813198328,-0.01641726494,-0.009896278381,0.02034410444,0.00006837489778340925
0.774568195,0.02178680897,0.007529646158,0.021068573,0.03122891904,0.00010623161444322306
0.779665539,-0.02349293232,-0.01148220897,0.03752231598,0.04573492307,0.00010188326563253478
0.784724706,-0.006737887859,-0.009010314941,-0.007922172546,0.01376029527,0.000025411881716269703
0.789802466,0.0122551918,-0.004181295633,0.004024505615,0.01355985268,0.000039419654345994994
0.794858039,0.0240675509,-0.02784711123,0.01824569702,0.0410805802,0.00013123579298602718
0.79992606,-0.009403318167,-0.01578429341,0.01571655273,0.02417801359,0.00016839511270589304
0.804991477,-0.02834203839,0.003356605768,0.02271270752,0.03647471762,0.00007279712731844915
0.810063091,-0.009166359901,0.008136808872,0.008275985718,0.01478924447,-0.000022316931626656727
0.815127623,0.0122795105,-0.001425921917,0.04621696472,0.04784169165,-0.000014433606211930549
0.820204966,0.007361203432,-0.001461088657,0.00544834137,0.009273970008,0.000035427714486891456
0.82525882,-0.00464001298,0.01761448383,-0.01359558105,0.02272970711,0.00004230396411219278
0.830327258,-0.009414792061,0.01990246773,0.0126543045,0.0253944473,0.000006686010135994742
0.835388612,0.002578139305,-0.001588404179,0.01730155945,0.01756456061,-0.000010615349750601137
0.840453508,-0.01635882258,0.04604241252,-0.004221916199,0.04904425964,-0.00004551421354900904
0.845526477,0.002771437168,0.02666166425,-0.006561279297,0.02759665904,-0.0000799784060420728
0.850583456,0.01223534346,0.01926380396,0.03625106812,0.04283617294,-0.00004203391879537209
0.855666737,0.002613574266,0.00701752305,0.05256938934,0.05310006682,-0.000004293308121802623
0.860730279,0.02158331871,-0.026345402,0.01887226105,0.03893689883,0.000056967683804938256
0.865783925,0.01426410675,0.01669073105,-0.009788513184,0.02403872365,0.00014754778294805225
0.870846425,-0.007252186537,0.009477645159,0.02355289459,0.02640376509,0.00016529670598720934
0.875919862,-0.00003066658974,-0.007333606482,-0.01703453064,0.0185461036,0.00014682215772782487
0.880978456,-0.02380332351,-0.009647369385,0.02586841583,0.03645332473,0.00008653891807052313
0.886055539,-0.004717707634,0.004743427038,0.0517911911,0.05222149309,0.00001413709688868691
0.891115695,0.01431313157,-0.00004211068153,0.05136013031,0.05331726263,0.000038414267889832837
0.896176633,-0.01907882094,-0.01186463237,0.01767730713,0.02858772634,0.000026354838675418222
0.901237883,-0.01417911053,0.0001711249352,0.000904083252,0.01420893471,-0.00005780851415085082
0.906303768,0.0001794993877,-0.009379416704,0.01277256012,0.01584752251,-0.00009326872419665702
0.911377727,-0.009341746569,-0.002121895552,-0.001585006714,0.00970993903,-0.0001165131574695484
0.916440227,0.009779602289,-0.02105149627,0.000804901123,0.02322614867,-0.00011540483517829842
0.921506633,0.01443400979,-0.004140406847,-0.01582527161,0.02181565559,-0.00005406684041893978
0.926572518,0.02606979012,0.0102519691,0.04608154297,0.05392815063,0.000048526955784594105
0.931638404,0.0114801228,0.003042757511,0.04332637787,0.0449246771,0.00014363874486591805
0.936706112,-0.02663689852,0.00534594059,-0.01880073547,0.03303893306,0.00010523368808069443
0.941770695,-0.01924908161,-0.006623238325,0.02886390686,0.03532024275,-0.00001096298937167372
0.946837102,-0.0002036094666,0.002832949162,-0.01413631439,0.0144188225,-0.0000602406144913361
0.951885539,0.006860166788,-0.006687819958,0.01449108124,0.01737182373,-0.00004343800935434792
0.957004185,0.02578952909,0.0172290504,-0.01650714874,0.03513439835,0.000040123108249222745
0.962032154,0.006550461054,0.009957313538,0.005011558533,0.01292951476,0.00012142534220139185
0.967104341,-0.01490157843,0.007447361946,0.004967689514,0.01738384821,0.00010024612770638177
0.972171633,0.00178655982,0.01689252257,-0.02832794189,0.03303061318,0.00006701731326522924
0.977240123,0.00170686841,0.01443329453,0.0004196166992,0.01453992672,0.00007587051628996555
0.982304029,-0.0007476508617,0.01912111044,0.005172729492,0.01982253709,0.00007829921003903647
0.987370175,-0.01036036015,0.01184019446,-0.001992225647,0.01585863267,0.000050161807261596555
0.992434029,-0.0008886158466,0.004671961069,0.01941204071,0.01998609974,0.00002168022121345323
0.997500487,-0.003215074539,-0.002382308245,0.02638149261,0.02668323911,0.000011284633721630022
1.002568925,0.001602053642,0.009572356939,0.007158279419,0.01205974948,0.000007196885517055571
1.00763382,-0.005545824766,0.01425307989,0.03085517883,0.03443760328,-0.0000027905078064901504
1.012703873,-0.01501455903,-0.002385288477,0.01634979248,0.02232582133,-0.000054911625579521504
1.017783612,0.01587304473,-0.01899132133,0.02809619904,0.03744356066,-0.000052731183933905494
1.022837154,0.03948101401,-0.03540709615,0.02786445618,0.05990693485,0.00008713584642262826
1.027907102,0.01310759783,-0.02555719018,0.006251335144,0.02939486829,0.0002204466101331158
1.032986477,-0.001165777445,-0.008556127548,-0.01992797852,0.02171844109,0.0002507751020921464
1.03806382,-0.0272500515,0.001176565886,0.008750915527,0.02864486231,0.00017863664700059728
1.043125279,-0.0009096562862,0.01304510236,0.02530765533,0.0284864808,0.00010737204379468138
1.04816382,-0.0009689033031,0.01758685708,0.01084136963,0.02068264033,0.00010263944403886577
1.053221112,0.006096273661,0.01021045446,-0.01775836945,0.0213723564,0.0001156047485848878
1.058286998,-0.01064807177,0.01013043523,0.02752780914,0.03120556724,0.000104075303427282
1.063352362,-0.02482771873,0.0005986988544,0.09619140625,0.09934566268,0.000014226407392160692
1.068418508,-0.005579680204,-0.02326288819,0.03599452972,0.04321921989,-0.0000627977538477817
1.073505487,0.001630395651,-0.0183673501,0.009560585022,0.02077071317,-0.00007284271764084953
1.078561737,0.01828235388,0.00322034955,-0.004772186279,0.01916739097,-0.000022500797732790305
1.083625539,0.018119663,-0.01105248928,-0.004731178284,0.02174543066,0.0000696655052076987
1.088702362,0.001220405102,-0.008582025766,-0.002311706543,0.008971317741,0.00011875855648859876
1.093765383,0.02484157681,0.01286780834,0.007214546204,0.02889176539,0.00018473473734963684
1.098817466,0.01036134362,0.05081951618,-0.007095336914,0.05234810859,0.0002736587752770154
1.10388231,-0.0230025351,0.01718896627,0.02622413635,0.03888807671,0.00024164594386685403
1.10895132,0.02473917603,-0.006600499153,-0.04525661469,0.05199764026,0.0002460474689871433
1.114021112,0.03877344728,-0.02311712503,-0.006867408752,0.04566117592,0.00040704536376516955
1.119083873,0.005229622126,-0.02059811354,-0.002063751221,0.02135158772,0.0005184338755996603
1.124149758,0.007551252842,-0.03704798222,0.00745677948,0.03853800677,0.0005508070969932939
1.129415487,0.007475048304,-0.0153541863,0.002644538879,0.01728065305,0.0005903693118469066
1.134265487,-0.01170805097,0.01100492477,0.0002565383911,0.01607024078,0.0005801042803818576
1.139360227,-0.05211699009,-0.008090496063,0.0311422348,0.06124929037,0.0004175182855368423
1.144419758,0.005369395018,-0.02934587002,0.03563499451,0.04647432973,0.00029925783231572983
1.149508612,-0.01126950979,0.004156857729,0.02583408356,0.02849001914,0.0002842454209867537
1.154601529,-0.006387501955,0.02788043022,-0.002890586853,0.02874846192,0.00023928257334409833
1.159616268,-0.008619457483,0.01350286603,0.006637573242,0.01734012159,0.00020165458096152049
1.164685018,-0.02281850576,0.001513302326,0.01608467102,0.02795873622,0.00012197899286754307
1.169741685,-0.008543670177,0.01803064346,0.03733348846,0.0423306953,0.00004268495281313098
1.174817779,0.005820125341,0.01783332229,0.02751731873,0.03330321415,0.00003577246801275619
1.17988257,0.01050752401,0.01768755913,0.003533363342,0.02087444527,0.0000771205337548057
1.1849483,-0.001522541046,-0.01328477263,0.02251434326,0.02618585434,0.00009987828262991796
1.190050539,-0.02764874697,0.02500125766,-0.02042484283,0.04250517966,0.00002545884093218474
1.195081477,0.01058238745,0.005797982216,0.00350189209,0.01256450437,-0.000017471057383229396
1.20014632,0.01756083965,0.02243989706,0.02723407745,0.03941607596,0.00005379945600419305
1.205223404,0.0007680654526,0.003353536129,-0.001494407654,0.003750917667,0.00010032815142115806
1.21027632,0.02212876081,0.0009551048279,0.01277160645,0.02556771815,0.00015817602130691288
1.215361685,0.02203604579,0.008183300495,-0.02296733856,0.0328641501,0.00027047310216461756
1.220420539,0.02907016873,0.01049572229,-0.008525848389,0.03206126927,0.00039974254103929905
1.225481529,0.007539302111,-0.01091453433,0.02242565155,0.02605528705,0.0004923826239550961
1.230534602,0.0002828240395,0.02956339717,-0.03001976013,0.04213383961,0.0005121455111819389
1.235607518,0.02159297466,0.01511874795,0.05100440979,0.05741326425,0.0005676325557996732
1.24067132,-0.02605605125,0.01267647743,-0.02543640137,0.03855672965,0.0005563324877183729
1.245753612,-0.03303298354,-0.01588052511,0.04129600525,0.05521529796,0.00040617862331790395
1.250818977,-0.03028848767,-0.01579299569,-0.04219722748,0.0542901207,0.00024580544131008
1.255870018,0.02220821381,-0.01571264863,-0.001463890076,0.02724399129,0.0002253985440310409
1.260936268,-0.001747399569,-0.01795440912,0.01280212402,0.02212032079,0.00027722834410527723
1.266000852,-0.0325755775,-0.01299664378,0.0008192062378,0.03508207659,0.00019031254385726726
1.2710683,-0.01568815112,-0.03653454781,0.02694988251,0.04803319098,0.00006802557632328297
1.276134445,-0.01794567704,-0.03152602911,0.01484489441,0.03919577434,-0.000017171348858538996
1.281198508,-0.005931198597,0.01614847779,-0.01378822327,0.02204693976,-0.00007762835009300366
1.286265175,0.003605127335,0.01126566529,0.01958465576,0.02287948642,-0.00008352106434441584
1.291332623,-0.005942255259,-0.02208289504,0.0004177093506,0.02287223496,-0.00008944270145652472
1.296397987,0.003586947918,0.01615801454,-0.00671005249,0.01785979937,-0.0000954079459635443
1.301462779,-0.01545998454,0.001775175333,-0.006652832031,0.01692402268,-0.00012547517641295158
1.306528977,0.0107845664,0.01839199662,-0.01609802246,0.02671551496,-0.00013731847342796812
1.311595852,0.02023369074,0.0182415545,0.01491641998,0.03105891396,-0.000058735657604848965
1.316652518,0.0200523138,-0.03411534429,0.03855037689,0.05524566556,0.000043120777111782605
1.321735852,0.01987242699,-0.01714500785,0.02872943878,0.03891330494,0.00014459617326128052
1.326797779,0.02682313323,-0.01699489355,0.02611637115,0.04111413048,0.00026278093179015426
1.331865904,-0.0161704123,0.00690934062,-0.009733200073,0.02009866676,0.00028977559242183407
1.336932102,-0.01377940178,-0.01214969158,0.01648330688,0.0246817002,0.00021390974832560065
1.341996737,-0.01600331068,-0.02619478106,-0.007406234741,0.0315772833,0.0001384904643656732
1.347065123,0.005497127771,0.0001074075699,-0.03585243225,0.0362715708,0.00011186576918096712
1.352137258,0.02676382661,-0.00696516037,-0.0094165802,0.02921451448,0.00019368172710560437
1.357216893,-0.0209852159,-0.004580885172,0.02154159546,0.03042045579,0.00020835834371254713
1.362260383,0.01248627901,0.0002133846283,-0.01902294159,0.02275576857,0.000186926192104873
1.367325695,-0.01846048236,0.004967749119,0.01439094543,0.02392837752,0.00017179559014527562
1.372393195,0.007754564285,-0.01650488377,-0.01661014557,0.02466660478,0.00014466947022274629
1.377458768,0.005296766758,0.002533555031,0.009655952454,0.01130097593,0.00017772570529548754
1.382528977,0.00534889102,-0.01405477524,0.04045677185,0.04316129899,0.00020471356023395588
1.387588508,0.005343556404,-0.0114531517,0.01399230957,0.01885505253,0.00023176294483775558
1.392669706,-0.03277212381,0.0005794465542,-0.009873390198,0.03423202728,0.00016207795391464232
1.39773382,-0.03726282716,0.0101338625,-0.002662658691,0.03870792178,-0.000015254533933605201
1.402801216,0.00816527009,0.02435535192,0.032995224,0.04181554268,-0.00008897895608675401
1.407861112,0.01050710678,-0.01132410765,0.006595611572,0.01679692826,-0.00004173881356925221
1.412918664,-0.008545517921,0.01268658042,0.001794815063,0.01540118698,-0.00003677839474074392
1.417986373,0.01057171822,-0.003988593817,0.02316093445,0.02577011818,-0.00003164429799522086
1.423051216,0.00339871645,0.02455833554,-0.005540847778,0.02540401764,0.0000037347311274324425
1.42812632,0.02241164446,0.02915972471,0.001633644104,0.03681358643,0.00006922986407532617
1.433180643,0.01750329137,-0.0114711225,0.02299785614,0.0310942639,0.00017010135317987215
1.438245227,-0.001714110374,0.01728987694,0.006187438965,0.01844349262,0.00021008416990259387
1.44331606,-0.01358786225,0.01007851958,0.008514404297,0.01893942022,0.000171287296029156
1.448381685,0.007944494486,0.0195017457,-0.01293849945,0.02471513395,0.00015699370361439732
1.45344731,-0.0183198452,-0.004413336515,0.01330280304,0.02306640059,0.00013071488563409607
1.45852856,-0.008732497692,-0.01387584209,0.02032184601,0.02611078197,0.00006198502697410957
1.463586373,0.0151373148,0.005199342966,0.05578136444,0.05803216423,0.00007818221058984533
1.468663716,0.01262283325,0.03836643696,0.01017856598,0.04165240221,0.0001486561072801603
1.473726998,0.01012936234,0.0261220336,0.002965927124,0.0281737705,0.00020625649847582416
1.478790279,-0.01842465997,-0.01442492008,-0.006560325623,0.02430193998,0.00018525578703616205
1.483844706,-0.03015914559,-0.009442538023,-0.006500244141,0.03226435744,0.00006247413774355701
1.488913977,-0.01566982269,0.0001411139965,-0.01832294464,0.02411003021,-0.00005368559218730463
1.493981216,-0.01792997122,-0.0259360671,-0.008666038513,0.03269959737,-0.00013881468523366095
1.499048977,-0.005915641785,0.009970277548,-0.03234577179,0.03436059087,-0.00019923661903757756
1.504113404,0.001297086477,0.02419528365,-0.00119304657,0.02425938054,-0.00021093178713899285
1.50920231,0.01557651162,-0.004509955645,0.02019500732,0.02589991766,-0.00016799770984028594
1.514248195,0.001180738211,-0.01396948099,0.005774497986,0.01516197114,-0.00012572013205853892
1.519311685,-0.008393615484,-0.00196814537,0.04611301422,0.04691200761,-0.00014398129803007016
1.524374445,0.00111374259,0.038541466,-0.004149436951,0.03878018632,-0.00016240942267648547
1.529460956,-0.00598269701,0.03347423673,-0.01124286652,0.03581506995,-0.00017479241778439963
1.534507883,-0.001095622778,0.002262085676,-0.02778339386,0.02789685278,-0.0001926542994107453
1.539572623,0.008400470018,-0.01681026816,-0.006175041199,0.01978090357,-0.00017415572340558657
1.544640956,0.01064115763,0.009413719177,-0.02037525177,0.0248395497,-0.0001259010685145503
1.54970757,-0.003713518381,0.01651898026,-0.017827034,0.02458597301,-0.00010835123151158408
1.554785018,0.001105427742,0.01416510344,-0.02717494965,0.030665127,-0.00011497245381098834
1.559841945,0.02008533478,0.04735937715,-0.003190994263,0.05154137873,-0.00006139238423694292
1.564912258,0.003273963928,0.01365792751,0.01108646393,0.01789322515,-0.000002172906281917153
1.57000455,0.01985776424,0.0135447681,0.04662799835,0.05245914385,0.000056723850866123997
1.575050904,0.03160429001,-0.0008206963539,0.008229255676,0.032668415,0.0001865717225224785
1.580112883,0.00281688571,0.004041880369,0.03429698944,0.03464902779,0.00027369135684745236
1.585150279,0.00752940774,0.02069157362,0.01263427734,0.02538618057,0.0002997505454673809
1.590244393,-0.01397836208,-0.01743206382,0.005408287048,0.02298958513,0.0002833246911730003
1.595299081,-0.01387700438,0.004251658916,-0.02076053619,0.02533076622,0.00021292459788251842
1.60037382,0.0004244744778,0.01139780879,-0.003952980042,0.01207129964,0.00017879055881084055
1.605410539,-0.01859605312,-0.0006216168404,0.03171157837,0.03676715657,0.00013302799110726023
1.610511841,-0.01127246022,0.01121613383,0.01719093323,0.02341790347,0.00005684383768807377
1.615556373,-0.001740932465,-0.01510685682,0.02179718018,0.02657752871,0.00002402059977405034
1.620629289,-0.02787008882,-0.01735144854,0.007363319397,0.03364569942,-0.00005108651205245874
1.625690487,-0.001470118761,0.02090856433,-0.004572868347,0.02145321506,-0.0001253348120167288
1.630756633,0.02228474617,0.004162669182,0.004970550537,0.0232087074,-0.00007260984132193089
1.635821998,0.01733273268,-0.02194803953,0.002555847168,0.02808331206,0.000027728654055581806
1.640888143,-0.008799225092,0.01387295127,0.02628326416,0.03099508209,0.00004934464745528466
1.645960279,-0.01106208563,0.001936852932,0.01893901825,0.02201834576,-0.0000010249871048375887
1.651024602,0.01747173071,0.004405379295,-0.03109741211,0.03594047552,0.000015205269395402746
1.656091529,0.00786331296,0.02575352788,0.02854728699,0.03924313294,0.00007939067780425518
1.661159498,0.0007104873657,0.01836532354,0.02593040466,0.03178326269,0.00010111655493567372
1.666237883,0.01272600889,0.01584178209,-0.0004215240479,0.02032464132,0.00013523440545442538
1.671289341,-0.008718311787,-0.01511308551,0.009084701538,0.01967094599,0.00014535676225068588
1.676352154,0.01266694069,0.02307629585,0.02326869965,0.0351340177,0.0001553523471218282
1.681407362,-0.004084974527,0.0419408679,0.008823394775,0.04305317308,0.00017704415912329238
1.686471581,-0.008869200945,-0.02486881614,-0.0007457733154,0.02641357453,0.00014424276834597505
1.691542727,-0.006484627724,0.006225466728,0.01826763153,0.02035959711,0.00010531201492623165
1.696600123,-0.01119443774,-0.007970660925,0.01099395752,0.01759869239,0.000060606997445545845
1.701665852,0.003084778786,-0.01022487879,-0.01522254944,0.01859543002,0.00004006633017385236
1.706732831,-0.03258919716,-0.02201452851,0.003910064697,0.03952194129,-0.00003468280398028501
1.711817831,-0.03232800961,-0.0478502512,-0.0008678436279,0.05775378687,-0.0001997348021930102
1.716863716,-0.01306945086,-0.02131769061,-0.01273727417,0.02806229912,-0.0003142699846048413
1.721928977,-0.003577709198,-0.02356478572,0.01350212097,0.02739354668,-0.0003564310899061133
1.726995487,-0.03444752097,0.01706844568,0.001515388489,0.0384741464,-0.0004527586943553506
1.732060175,0.003884971142,-0.006826341152,-0.00325012207,0.00850030751,-0.0005301535840369833
1.73712705,0.003837376833,0.002735555172,0.03241062164,0.03275144452,-0.0005105894980890691
1.742195539,0.008489191532,-0.004306852818,-0.03436660767,0.03566060959,-0.00047935096000619446
1.747254914,-0.01777717471,0.01009130478,0.008686065674,0.02221058553,-0.0005028466549517898
1.752347466,0.008434265852,0.04337224364,-0.01988506317,0.04845311235,-0.0005266362795471067
1.757408664,0.01774203777,0.007272154093,-0.01971912384,0.02750469005,-0.00046039455177757804
1.762473248,-0.01816055179,0.00003355741501,-0.007674217224,0.01971548572,-0.0004614543514823197
1.767539914,-0.02990213037,-0.007038414478,-0.01235771179,0.03311177615,-0.0005832131302667602
1.772606581,-0.005910307169,-0.006870597601,0.04001235962,0.04102591577,-0.0006739379780009649
1.777676373,0.00352653861,0.02170035243,0.02780532837,0.03544683422,-0.0006799805833860988
1.7827433,0.01287996769,0.009644657373,0.01807689667,0.0242009747,-0.0006384152985125297
1.787808404,-0.008622437716,0.01901724935,-0.005831718445,0.02167974042,-0.0006276328824618157
1.79287481,-0.008459210396,0.01881176233,-0.003413200378,0.02090671135,-0.0006709041647040791
1.797941737,-0.02735370398,-0.0003442764282,-0.01764011383,0.03255022678,-0.0007616348761042983
1.803020123,-0.02006658912,-0.007465183735,0.006265640259,0.02230818717,-0.0008820441524017691
1.808077935,-0.005661338568,0.04005867243,-0.01516819,0.04320673534,-0.0009471076630995183
1.81311731,0.00155633688,0.027908355,0.0158405304,0.03212819426,-0.0009574509845402517
1.818179029,-0.0127697885,0.01337996125,-0.003294944763,0.01878689763,-0.0009858306551005194
1.823273768,-0.01980042458,0.01084786654,-0.008020401001,0.0239595462,-0.0010687990225090127
1.82831481,0.00653219223,-0.02006989717,0.003925323486,0.02146808032,-0.001102241880780064
1.833403716,0.02784478664,-0.003216505051,0.02527427673,0.03774211325,-0.0010147712737633538
1.838469862,-0.0152117908,0.01344409585,0.01081371307,0.02300171044,-0.000982770973091943
1.843534966,0.001583039761,-0.005615144968,0.008348464966,0.01018492686,-0.001017286493793265
1.848602154,-0.003191590309,-0.01036426425,-0.02735614777,0.02942725,-0.001021361907810374
1.85365705,-0.01273664832,-0.0006712377071,0.01801490784,0.02207282662,-0.0010616197026767633
1.858712102,-0.003195464611,-0.000610858202,0.00124168396,0.003482229297,-0.0011018885323448011
1.863785748,-0.01273834705,-0.005406141281,0.003607749939,0.01430061918,-0.0011423097922440945
1.868843977,-0.01259535551,-0.01491233706,0.02257823944,0.02984623382,-0.0012063816267272787
1.873906425,0.006394654512,-0.01943227649,0.008146286011,0.02201969463,-0.00122207698991024
1.878973612,-0.01267814636,0.02586770058,-0.02517795563,0.03825967561,-0.0012379968040136362
1.884067154,-0.01263770461,-0.000473678112,-0.01546287537,0.01997589706,-0.001302470479104354
1.889191112,0.008834540844,0.006661981344,-0.005831718445,0.01250759958,-0.0013122141048064067
1.894174706,-0.007880419493,0.009038209915,0.03460407257,0.03662283561,-0.0013098366280863468
1.899239706,0.003943622112,0.006694257259,0.0271987915,0.02828673708,-0.0013198065674537296
1.904305539,-0.005665898323,-0.002815335989,0.01747608185,0.0185860689,-0.00132416894928613
1.909389602,0.006298422813,0.004339784384,0.01495265961,0.0167954127,-0.0013225610521080287
1.914450956,0.03236651421,-0.002815753222,-0.001799583435,0.03253856494,-0.001224712585277475
1.919502779,-0.02967992425,-0.009861946106,-0.004157066345,0.03155054809,-0.0012179264968017402
1.924575695,-0.01524427533,0.01635619998,0.005383491516,0.02299772139,-0.0013318748422200238
1.929630695,0.01337406039,0.03517511487,-0.02317047119,0.04419304168,-0.0013366018104808758
1.934720383,0.01324978471,-0.005497097969,-0.00634765625,0.01568654266,-0.0012688482780212117
1.93978705,-0.02012848854,0.006381571293,0.01270771027,0.02464480479,-0.001286274328870327
1.944853456,0.006102889776,0.02538758516,0.007856369019,0.0272671465,-0.0013218040177360878
1.949921164,-0.03196689487,0.003855526447,0.01254463196,0.0345559726,-0.0013873396304995398
1.955001893,-0.01741030812,-0.005675941706,-0.03507232666,0.03956517712,-0.001512775724084627
1.960057362,0.004047483206,-0.003354132175,0.0008516311646,0.005325185311,-0.0015465533976372057
1.965091529,-0.03163439035,0.01810824871,-0.001528739929,0.03648260367,-0.0016159919464253957
1.970156633,0.001975655556,0.01568871737,0.02461528778,0.02925664813,-0.0016911042345454075
1.975257102,-0.0003792643547,-0.02012464404,0.01965618134,0.02813379825,-0.0016870330626283557
1.980323768,-0.005194455385,-0.01995411515,0.01949501038,0.02837612567,-0.0017011531507776893
1.985386789,-0.01942199469,0.03009912372,0.005080223083,0.03617982577,-0.0017634699526152776
1.990453195,0.01160660386,0.003616064787,0.0216627121,0.02484073818,-0.0017832679241120033
1.995516998,0.02342927456,-0.02728882432,0.03335762024,0.04905447653,-0.0016945605309865862
2.000583143,0.01144525409,-0.02938202024,-0.01443195343,0.03467820979,-0.0016062208215128087
2.00564955,0.004262566566,0.001749873161,0.009441375732,0.01050576535,-0.0015664297152496595
2.010715695,0.01134333014,-0.02433630824,0.004614830017,0.02724378266,-0.0015268988474658484
2.015783143,0.01355463266,0.006749123335,0.002203941345,0.01530150613,-0.0014638142815683794
2.0208608,0.02060768008,-0.005179733038,0.002183914185,0.02136060846,-0.0013770820283581589
2.0259183,-0.003280222416,-0.0217602551,-0.0002117156982,0.02200712122,-0.0013332652197903239
2.030974237,-0.005645990372,0.00450065732,-0.02396774292,0.02503169639,-0.0013558304045426864
2.03603731,-0.0008630752563,-0.007463753223,-0.02377033234,0.02492952487,-0.0013723083417616236
2.04108757,-0.03169628978,-0.0004234313965,-0.0188293457,0.0368697483,-0.0014545249711957354
2.046153404,-0.01239100099,0.0138361752,0.02883625031,0.03430023296,-0.0015661944194710075
2.051221841,-0.005129098892,0.01609489322,0.03096961975,0.03527705473,-0.0016105941807138182
2.056285539,-0.01460373402,0.004190057516,0.0378446579,0.04078043355,-0.0016605547339892353
2.061351789,-0.02157178521,-0.03617405891,-0.005229949951,0.04244121619,-0.00175219184613873
2.066417518,-0.01903170347,-0.007415384054,0.01856708527,0.02760308521,-0.0018550349811924543
2.071486164,0.02149581909,0.02353128791,0.01366233826,0.03467637864,-0.001848790116302039
2.076553195,0.009374171495,-0.01941943169,0.03493118286,0.04105090686,-0.00177058051667009
2.081617831,-0.009671390057,-0.02880895138,0.001379013062,0.03042027518,-0.0017713331685845755
2.086694498,0.002326279879,0.0285012722,0.03937625885,0.0486644003,-0.0017899775078105825
2.091775331,-0.002452164888,-0.0001288056374,0.01767444611,0.01784420771,-0.001790297308164548
2.096817154,-0.02377483249,-0.009627014399,-0.02285861969,0.03435751097,-0.0018564132474652181
2.101886112,0.01922228932,0.01891261339,-0.02742290497,0.03846035711,-0.0018679515725261813
2.106957102,0.016723454,0.002129077911,0.008437156677,0.01885185665,-0.001776811320067036
2.112012831,-0.0238647759,0.03537389636,0.02499866486,0.04945476031,-0.0017948636141811233
2.117109654,-0.01180106401,0.01375672221,0.02004241943,0.02702241837,-0.001885754850764929
2.12216955,0.004910856485,0.008945912123,0.0008735656738,0.0102425081,-0.0019031867175123883
2.127233352,-0.006968468428,0.02070206404,-0.03477096558,0.0410628184,-0.00190839638724848
2.132300018,0.01439973712,0.001473814249,-0.02972984314,0.03306641999,-0.001889570509039167
2.137365643,0.009558290243,0.02758872509,0.01090145111,0.03116633281,-0.0018288893178588204
2.142431268,-0.01666745543,-0.00109270215,0.006062507629,0.01776941382,-0.0018468955003090146
2.147497154,-0.01653409004,-0.01527309418,-0.01061344147,0.02488551143,-0.0019309931224964275
2.152566164,-0.004583507776,0.008510380983,0.01560497284,0.01835620618,-0.00198451577974907
2.157628143,0.002514094114,0.003691256046,0.03923225403,0.03948564038,-0.0019897534439987487
2.162695435,0.03568336368,-0.02246755362,0.01277732849,0.04406079359,-0.0018929746078488181
2.1677608,0.004436701536,-0.005596637726,0.02692985535,0.02786079294,-0.0017913632207773942
2.17283632,-0.02649751306,-0.01035040617,-0.02080726624,0.03524473626,-0.001847348265830539
2.177878039,-0.004911959171,-0.007885783911,-0.004004478455,0.01011675731,-0.001926527132294039
2.182942883,-0.01433876157,-0.0006928145885,-0.0491065979,0.05116188066,-0.0019752780810144044
2.1880033,-0.009376913309,0.003965079784,-0.0130739212,0.0165703282,-0.0020352836831764886
2.193096216,0.01195862889,-0.005517095327,0.003672599792,0.01367242243,-0.002028709452881531
2.19816132,-0.0000883936882,0.004187881947,0.03928470612,0.03950739555,-0.0019986474649807398
2.203227727,-0.01678368449,0.0112824738,0.02708244324,0.03380007414,-0.0020413878724740275
2.208293873,-0.004830986261,0.01826804876,-0.001647949219,0.01896775607,-0.002096139411357279
2.213331581,0.02132508159,0.01099205017,0.01261997223,0.02710807944,-0.0020545931933614436
2.218408768,0.01163241267,0.01808431745,-0.02073955536,0.02987448273,-0.0019709275126567143
2.223468925,-0.002683311701,0.0250608623,-0.003938674927,0.02551000081,-0.00194828558470072
2.228537623,-0.005054086447,0.01540264487,0.0341053009,0.03776184329,-0.001967894851959704
2.233600852,0.01397714019,-0.006050646305,-0.01131153107,0.01897159729,-0.0019453051197196474
2.238669237,0.02572312951,0.008255839348,-0.03259563446,0.04233572559,-0.0018446969939979311
2.243733456,0.01129242778,-0.01318997145,0.003307342529,0.01767576834,-0.001750969549736122
2.248801529,-0.007818758488,-0.02490058541,0.01278400421,0.02906205261,-0.0017421671449612645
2.253868143,-0.01732301712,-0.02221053839,0.01268482208,0.03089174079,-0.0018058589811014397
2.258932362,-0.01476627588,-0.003018319607,0.02683067322,0.03077398547,-0.0018871125847550211
2.263995539,-0.02178505063,0.008939415216,0.0004796981812,0.02355274264,-0.001979645502607487
2.269064029,-0.009897321463,0.01599436998,0.002859115601,0.01902501998,-0.002059936395672308
2.274131893,-0.01463568211,0.02293625474,0.04797077179,0.05514952328,-0.002122101358482046
2.279196581,-0.01215335727,0.001368135214,0.0238161087,0.02677280188,-0.002189940421621753
2.284267727,0.002183496952,-0.005717098713,-0.007261276245,0.009496262914,-0.0022152197302578508
2.289352675,0.02596011758,0.0228420496,-0.000075340271,0.03457878845,-0.0021436653220442197
2.294414341,-0.0264787972,-0.0129763186,-0.009578704834,0.03100424377,-0.0021449780135429333
2.299479706,-0.02627336979,-0.003415226936,-0.007124900818,0.02743570569,-0.0022785825037155865
2.304547675,0.03100019693,-0.01752853394,0.0238199234,0.04284449163,-0.0022666047970086567
2.309588716,0.006973803043,-0.01267820597,0.004614830017,0.01518774149,-0.0021708905516097084
2.314678977,-0.02397912741,0.02306556702,-0.007300376892,0.0340633885,-0.0022141713213185473
2.319748977,-0.002412259579,-0.01037910581,-0.002487182617,0.01094216208,-0.002281073487335667
2.32481382,0.01649042964,-0.01741856337,-0.05709934235,0.06193283068,-0.0022454216267925346
2.329882831,-0.007415145636,0.01588496566,0.009887695312,0.02012667477,-0.002222420269570333
2.334946373,0.01173502207,-0.003253251314,-0.01870441437,0.02231926307,-0.0022114833316911435
2.340021268,-0.009755373001,-0.003168910742,-0.0446767807,0.04583911028,-0.00220646007611013
2.345081945,-0.007261693478,0.006362497807,-0.008672714233,0.01297804079,-0.0022495190145790022
2.350119498,0.0117880106,-0.0007625222206,0.0009050369263,0.0118472666,-0.0022381182333805626
2.355188768,0.0093511343,0.001570105553,0.01277065277,0.01590592708,-0.002184538216846952
2.360277518,-0.002619773149,-0.0008679628372,0.01028633118,0.01065012582,-0.002167411109818375
2.365343404,-0.0073145926,0.006266534328,0.0006971359253,0.009657055239,-0.0021925742920017427
2.370411112,-0.01677584648,0.02532124519,-0.001678466797,0.03042058077,-0.002253615947426361
2.375477518,0.009432405233,0.01556327939,-0.01354217529,0.0226842775,-0.0022722183748235783
2.380541841,0.002159953117,-0.003567844629,-0.02767944336,0.02799190057,-0.0022428646513155044
2.385605643,-0.005054324865,0.02977210283,0.01769256592,0.03499930279,-0.002250192914038636
2.390669706,0.00210160017,0.02002689242,-0.01333618164,0.0241525751,-0.002257669305977204
2.395732779,0.004446804523,-0.001566827297,-0.00847530365,0.009698442669,-0.0022410917804801043
2.400785539,-0.005109935999,0.003094136715,0.008220672607,0.01016191842,-0.00224276710257844
2.405850904,-0.01453262568,-0.006378859282,-0.006099700928,0.01700274702,-0.0022925154747980105
2.410916164,-0.0334854722,-0.006377130747,-0.02742767334,0.04375182179,-0.002414127550031842
2.415982831,-0.00002101063728,-0.01582765579,0.0108127594,0.01916848703,-0.002499010645470697
2.421053404,-0.004836827517,0.01281571388,-0.003527641296,0.01414502301,-0.0025113266569624275
2.426116789,0.01419496536,0.01508951187,0.02976036072,0.03626112905,-0.0024876347295713394
2.431186373,0.02831470966,-0.008684545755,0.003387451172,0.02980971224,-0.0023798815454080407
2.43625007,0.006733357906,-0.02043715119,0.005734443665,0.0222687921,-0.0022911451481131694
2.441314185,-0.007536709309,0.01072433591,0.01044178009,0.01675840504,-0.002293179280058272
2.446381425,0.01869627833,0.003461331129,-0.003902435303,0.01941032298,-0.0022649051727952857
2.4514458,0.01867905259,-0.03219994903,-0.0205039978,0.0424989135,-0.0021702638270313
2.456513248,-0.005143016577,-0.0106010139,-0.02509021759,0.02771914742,-0.0021359672477203016
2.461577362,-0.005108118057,0.01552355289,-0.01538181305,0.0224426767,-0.0021619237049282643
2.466643352,0.02099809051,0.01059389114,0.008502006531,0.02500868748,-0.0021216744841546674
2.471700383,0.008932650089,0.00808313489,0.04643821716,0.04797538244,-0.00204599414262362
2.476794602,-0.02911090851,0.01989853382,0.003290176392,0.03541499546,-0.002097390376341208
2.48186205,-0.0003225505352,0.005536645651,-0.01574039459,0.01668887371,-0.00217196663792705
2.486925852,-0.00983479619,0.01029869914,0.01765060425,0.02267885029,-0.002197684034257931
2.491991998,0.006912797689,-0.006413072348,0.007999420166,0.0123654758,-0.002205085669766853
2.497057883,-0.005141824484,-0.01343134046,0.003190040588,0.01473145018,-0.002200599896469547
2.502124289,-0.005166232586,0.0009887218475,0.02929973602,0.02976813835,-0.0022267122975634427
2.507191737,0.02331355214,-0.003717839718,-0.01607322693,0.02856033385,-0.0021807319984738106
2.512263352,0.01117420197,-0.0177808404,0.00782585144,0.02241127006,-0.0020932776929435113
2.517327154,-0.007886320353,-0.008127689362,-0.00174331665,0.01145829551,-0.0020849531021895473
2.522391633,-0.02436044812,-0.02473795414,-0.004110336304,0.0349613025,-0.0021666096430642263
2.52745856,-0.002894580364,-0.01027351618,0.01730823517,0.0203346683,-0.002235659262919902
2.532535123,0.006618916988,-0.02195614576,-0.001834869385,0.02300541555,-0.0022262058481674306
2.537591893,-0.0005236268044,0.004466742277,0.04806995392,0.04827987615,-0.0022107946078965667
2.542629706,-0.0289914608,-0.01209503412,0.03342056274,0.04586642197,-0.0022851403539113583
2.547695852,0.01874324679,0.00473934412,-0.0167388916,0.02557266461,-0.002311099828118316
2.552788508,-0.0003826022148,-0.02364888787,-0.009468078613,0.02547667158,-0.0022643476047384337
2.557859341,0.001980900764,-0.00671595335,0.007245063782,0.01007566109,-0.0022602952522248667
2.562923143,-0.007550537586,-0.01135396957,0.02144050598,0.02540902477,-0.0022743970212641238
2.567987727,-0.0169480145,-0.03025642037,-0.02387428284,0.04210305868,-0.002336434508723089
2.573069341,-0.01449629664,-0.03939688206,0.01434135437,0.04436137258,-0.0024163284345777762
2.578095748,0.03311777115,0.0156210959,-0.009531021118,0.03783709511,-0.002369528879664077
2.583162727,0.01387196779,-0.01058724523,-0.02370357513,0.02943434603,-0.0022504808694518465
2.588228977,-0.0004575550556,0.02519118786,0.02875709534,0.03823317714,-0.002216500485194019
2.593295383,-0.01709526777,0.008357524872,-0.03324508667,0.03830577228,-0.002260965348634298
2.598364237,-0.002603292465,-0.02965918183,-0.04009628296,0.04994152687,-0.0023108899115550094
2.603429289,-0.002490222454,-0.01995688677,-0.04214382172,0.04669668346,-0.0023237893705187647
2.608499289,0.01900425553,0.001596480608,0.003339767456,0.01936141847,-0.0022819262966711096
2.613559289,-0.004875063896,0.03019431233,0.01044178009,0.03231862492,-0.002246179441837084
2.618630123,-0.004852086306,-0.005585491657,-0.02289676666,0.02406246833,-0.0022708418238207885
2.623729185,0.002302110195,-0.01023253798,-0.01557636261,0.01877838164,-0.002277343066965043
2.628770695,-0.002433925867,0.004054814577,-0.001196861267,0.004878318693,-0.0022776753419793145
2.633824081,0.009500831366,0.02308011055,-0.01306438446,0.02817153601,-0.0022598194413233283
2.638887831,-0.007172703743,0.02304455638,0.003680229187,0.02441399895,-0.002253924913197846
2.643960852,-0.007128179073,-0.003223419189,-0.01060199738,0.01317587631,-0.0022901992526199017
2.649171008,-0.002330839634,-0.0008158385754,-0.008136749268,0.008503240243,-0.0023148407341550955
2.654081216,-0.02845704556,0.008695870638,0.001434326172,0.02979058407,-0.00239042819424642
2.6591458,-0.03778931499,-0.00805452466,0.01805210114,0.04264722793,-0.0025581833230963113
2.664243404,0.005324810743,0.01804378629,-0.005860328674,0.01970470211,-0.002640928916450067
2.669309393,0.007695287466,0.01784640551,0.0131893158,0.02348764973,-0.0026079490792972116
2.674371529,0.007618427277,0.003449469805,-0.01780128479,0.01966786761,-0.002569189025950074
2.679437154,-0.001962453127,0.0248554945,-0.003396987915,0.02516319447,-0.002554863503923279
2.684504862,0.002792239189,0.01040017605,-0.01049518585,0.01503692747,-0.0025527609471909366
2.689546477,0.01933318377,0.01042214036,0.01573085785,0.0270157897,-0.002496987015055216
2.694638977,0.02158224583,0.02696472406,0.010846138,0.03620122081,-0.0023928061024362174
2.699702362,0.00486010313,0.01243543625,0.03213024139,0.03479386568,-0.0023258622058918007
2.704770852,-0.007073312998,-0.009097278118,0.01998329163,0.02306781676,-0.0023314710219337303
2.709839081,0.0380038619,-0.008912205696,0.01507568359,0.04184491804,-0.0022530894694682085
2.714904185,0.01861804724,0.007899969816,0.01495742798,0.02515483766,-0.002109691540231888
2.719987518,-0.007683306932,0.005461454391,0.02908706665,0.03057643105,-0.0020818990771048346
2.725041945,-0.01460760832,0.02447283268,0.01933956146,0.03444300216,-0.0021382329790570463
2.730077154,0.01390677691,0.02897539735,0.009678840637,0.03356563796,-0.0021399973953686023
2.735141998,-0.0077034235,0.021666646,0.009605407715,0.02492087759,-0.002124287886719344
2.740199289,-0.02433270216,0.004706412554,0.004769325256,0.02523840678,-0.002205295891706937
2.745299758,0.004466056824,0.006940692663,-0.01428318024,0.01649630613,-0.0022559604960420573
2.750370539,0.004468172789,0.04484438896,-0.002289772034,0.04512457031,-0.0022333087351564377
2.755432727,0.01381868124,0.05873113871,0.01911449432,0.06329033495,-0.0021870229886447588
2.76047455,0.008883088827,0.01780644059,-0.02617931366,0.03288365943,-0.0021297938354125027
2.765541112,-0.03397065401,0.01765650511,-0.01408290863,0.04079320804,-0.0021933476876268444
2.770628039,-0.02657622099,0.02696207166,0.0002861022949,0.03785935399,-0.0023473464542284007
2.775673143,-0.0240932107,0.005364745855,0.02166748047,0.03284422338,-0.002475162730476877
2.780738977,-0.002577483654,-0.004124969244,0.04049682617,0.04078788697,-0.0025427173856079253
2.785804133,0.02351492643,-0.001757711172,-0.02397918701,0.03363097863,-0.0024896916786571743
2.790871685,0.001978427172,0.007816255093,-0.04278278351,0.04353589993,-0.0024250972311409148
2.795938456,-0.02898976207,-0.01817080379,0.01222324371,0.03633169555,-0.0024935273553071493
2.801000852,0.002073854208,-0.008507817984,0.0216255188,0.02333124303,-0.0025616568474556237
2.806068612,0.004364788532,0.02244791389,-0.01418495178,0.02691046402,-0.0025453420993895933
2.81113606,-0.005241006613,-0.01817256212,0.007314682007,0.02027843035,-0.0025475621941706576
2.816200591,0.01622420549,-0.01801389456,-0.03788280487,0.04497590628,-0.0025197498185747956
2.821287779,0.01370063424,-0.008251994848,-0.02568435669,0.03025704837,-0.0024436331757866046
2.826355956,0.006442189217,-0.00575491786,0.02679443359,0.02815248751,-0.00239258947850669
2.8314283,-0.01025059819,-0.02000507712,0.02419376373,0.03302447695,-0.002402248258708562
2.836488716,-0.01735657454,0.02287435532,0.002614021301,0.02883261899,-0.0024721001480073907
2.84155356,-0.02208477259,0.001252472401,0.0382270813,0.04416577421,-0.002571982283189041
2.846621008,-0.003013402224,-0.001128464937,0.004655838013,0.005659580698,-0.00263557413107147
2.851684029,0.004177600145,-0.003437489271,-0.009634971619,0.01104994812,-0.002632626951810381
2.856751477,0.01368182898,-0.005677372217,-0.01667690277,0.02230569626,-0.0025873760876100682
2.861817883,0.006480485201,-0.01032400131,-0.002284049988,0.01240155538,-0.0025363008528398157
2.866882987,-0.003088474274,-0.01018083096,-0.03314399719,0.03480966162,-0.00252771040878262
2.871949133,-0.02672672272,-0.0004846453667,-0.006736755371,0.02756694508,-0.0026032344792778074
2.877012935,-0.02408915758,-0.0217512548,-0.01142787933,0.03440931595,-0.002731895257425258
2.88208007,0.01648539305,0.00456815958,0.0100479126,0.01983927452,-0.002751159908116121
2.887159498,-0.0003931522369,-0.002639263868,-0.0066614151,0.007175983109,-0.0027102902188317225
2.892219914,-0.0004497766495,-0.009734451771,0.007650375366,0.0123891119,-0.002712423004243523
2.897262935,-0.002942800522,-0.01920667291,0.03847122192,0.04309978278,-0.0027209774232035207
2.902318143,-0.02442204952,0.002227753401,-0.02361297607,0.03404367823,-0.002790144927629079
2.907415487,-0.0004784762859,0.03784513474,-0.006786346436,0.03845175758,-0.002853608200535856
2.912480591,0.02558913827,-0.0147292316,-0.01385402679,0.03261423492,-0.0027900141433066946
2.917544914,-0.005518853664,0.001975238323,0.007639884949,0.009629493976,-0.0027391929413333313
2.922612623,0.00412067771,0.02577129006,-0.02568244934,0.03661594708,-0.0027427357157661656
2.927677727,0.0231795907,-0.0171482265,-0.01596641541,0.03295878514,-0.002673596366403886
2.93272856,-0.007910698652,-0.02418100834,0.02929973602,0.03880431482,-0.0026350360544891392
2.937787414,-0.01493218541,0.01165863872,0.01004981995,0.02144511364,-0.0026928154621934323
2.942852362,-0.01709190011,0.004335790873,0.03846359253,0.04231288317,-0.0027739156261466055
2.94791882,-0.009939789772,-0.01227200031,0.01677131653,0.02303645959,-0.0028423930868746936
2.952989914,0.006806284189,0.006835222244,0.01425361633,0.01721079156,-0.0028503382375551535
2.958065227,-0.009944140911,0.01866102219,0.02126407623,0.02998800803,-0.0028583010400618065
2.963121008,0.009132683277,-0.00519067049,-0.0002889633179,0.01050868516,-0.002860352316105948
2.968186581,0.008989274502,-0.009791493416,0.04723167419,0.04906639835,-0.002814453266089727
2.973253612,0.004197716713,0.01874509454,0.03970718384,0.04410963436,-0.0027810438194481586
2.978317362,0.006572723389,-0.002842396498,-0.008137702942,0.01083983947,-0.002753774411414909
2.983383925,-0.01007390022,-0.005243510008,0.008555412292,0.01421875319,-0.002762643877909107
2.988451164,-0.0147562623,0.01623496413,-0.005765914917,0.02268407178,-0.0028255540618579503
2.993515748,0.02810874581,0.0184237957,0.008533477783,0.03467503543,-0.002791741674685453
2.998582102,-0.0006992518902,-0.02205896378,0.003716468811,0.02238077247,-0.0027223085751061694
3.00368132,-0.02208611369,0.001832872629,0.04406833649,0.04932721481,-0.0027804023482577403
3.00871731,-0.009987682104,0.01850098372,0.01044464111,0.02347617346,-0.002861164005698055
3.013801893,-0.05743047595,0.0232052803,-0.003890037537,0.06206349163,-0.003032560615864393
3.018871685,-0.03088587523,0.02058926225,-0.0109834671,0.03871035466,-0.003256433381205171
3.02393705,-0.01876118779,0.003848254681,0.008114814758,0.02080003486,-0.0033821736288923137
3.028993352,-0.02326709032,0.01332119107,0.00329208374,0.02701202397,-0.0034884274622243943
3.034070383,0.01259437203,0.02276521921,-0.01573848724,0.03040679847,-0.0035155203230306875
3.03910507,0.02435442805,-0.02493023872,0.03190517426,0.04725034511,-0.003422507501316496
3.044174081,0.0002790689468,-0.005765229464,0.02213954926,0.0228795846,-0.003360073767693876
3.049273873,0.00744047761,0.01556062698,0.01719760895,0.0243567562,-0.003340389726806877
3.054331841,0.0002415180206,-0.01322430372,0.02654933929,0.02966155689,-0.0033209620827690193
3.0594008,-0.04253536463,-0.00841230154,-0.03306293488,0.05452688992,-0.003428154969976671
3.0644633,0.01244607568,-0.01308605075,0.007597923279,0.01959280384,-0.0035043184826313587
3.069513039,0.007529050112,-0.001040190458,0.005164146423,0.009188960771,-0.003453883896760475
3.074595852,-0.006749927998,0.001399129629,0.007497787476,0.01018508266,-0.00345190383075566
3.079661477,-0.009032338858,0.001442402601,-0.002065658569,0.009377132602,-0.003491877353526875
3.084728404,-0.001895397902,0.01801210642,-0.009174346924,0.02030263905,-0.0035195623757459413
3.08979507,0.005288749933,-0.005938261747,-0.01622867584,0.01807218161,-0.0035109658850651913
3.094858352,-0.00189474225,-0.003560274839,-0.001841545105,0.004433609534,-0.0035023734760605955
3.099927362,0.005232453346,0.01780000329,-0.006579399109,0.019685202,-0.0034939140305992283
3.105005748,-0.00913181901,0.005672395229,0.005351066589,0.01200833459,-0.0035038152725977013
3.110028352,0.009933501482,0.01513013244,0.01718616486,0.02495915907,-0.0035018020058024037
3.115126425,0.002651512623,-0.008648067713,-0.009080886841,0.0128172579,-0.0034697223454957433
3.120170227,0.004937946796,0.01513040066,0.01712703705,0.02338049915,-0.0034505824801975083
3.125237623,-0.01184895635,0.007830649614,0.04074192047,0.04314650535,-0.0034680928912824535
3.130320331,0.01436787844,-0.008806049824,0.002396583557,0.01702134122,-0.003461691418553343
3.13536757,0.004629462957,-0.001549124718,0.004759788513,0.006818159675,-0.003413749357355716
3.140433404,-0.009677499533,0.01499125361,0.009468078613,0.02019990581,-0.003426535615015686
3.145499029,0.01409125328,-0.004239290953,0.00226020813,0.01488769786,-0.00341535640435337
3.150585123,0.01153314114,-0.00192797184,0.01174259186,0.01657162887,-0.0033501923649967703
3.155674237,0.01627996564,0.02897515893,0.00451374054,0.0335405869,-0.0032794203294479736
3.16069856,0.01375129819,-0.002095997334,-0.002647399902,0.01415980695,-0.0032039769446579017
3.165764341,0.008920133114,0.02885621786,0.01400470734,0.03329237017,-0.003146552691686599
3.170828248,-0.01022335887,0.0404984951,0.02339267731,0.047873401,-0.003149852398700788
3.175894654,0.02078312635,0.01398304105,0.03269672394,0.04118907057,-0.0031231023640411492
3.180959029,0.006341516972,0.00436720252,0.00154209137,0.007852728261,-0.003054417681279224
3.186033456,-0.02682751417,-0.0003652274609,-0.02460479736,0.03640391409,-0.0031063950299309506
3.191120904,-0.002813994884,-0.009863704443,-0.02440166473,0.02646984084,-0.003181794847907825
3.196177935,0.01614418626,0.02115312219,-0.009939193726,0.02840557868,-0.0031480892523956454
3.201246425,-0.01731038094,0.004355311394,0.01152610779,0.02124780427,-0.0031510446754324604
3.206309445,-0.02425587177,-0.009931385517,0.001925468445,0.02628092773,-0.0032562700598303554
3.211375591,0.006919622421,0.002034127712,-0.005220413208,0.008903457984,-0.003300184044977577
3.216445643,-0.005028516054,-0.009699076414,-0.03130054474,0.03315240803,-0.003295390041168468
3.22150382,0.01157736778,-0.004810094833,0.01172637939,0.0171662585,-0.0032788274155800398
3.226577154,0.009090155363,-0.01648834348,0.004508972168,0.01936045519,-0.0032264007916514557
3.231644081,-0.02663147449,-0.0139182508,0.009225845337,0.03143357061,-0.0032708410834015674
3.236708143,0.01158386469,0.01243567467,0.02578353882,0.03088078366,-0.003308942097891077
3.24177955,0.02572533488,0.007688105106,0.02557468414,0.03708051084,-0.00321433702995923
3.246842831,0.006491482258,0.005199253559,-0.00314617157,0.008892129949,-0.0031327756309115756
3.251912362,-0.01258453727,0.002781063318,0.01588535309,0.02045603417,-0.003148220096545591
3.256977206,-0.007746219635,-0.009067088366,-0.01987743378,0.02318034477,-0.003199706152608466
3.262021008,0.01848599315,-0.008988648653,0.004041671753,0.02094905386,-0.0031726215070412224
3.267080123,0.00648868084,0.0005370676517,0.027759552,0.02851287688,-0.0031094466331397642
3.272174081,-0.01020699739,-0.001680731773,0.006156921387,0.01203807859,-0.0031189171073079704
3.277240748,-0.02201482654,0.007890373468,-0.003393173218,0.02363100094,-0.0032005457333009395
3.282306373,0.004336446524,-0.02057483792,0.003765106201,0.0213612909,-0.003245321755185219
3.287372258,-0.00996568799,-0.02509728074,-0.003389358521,0.02721536678,-0.003259580300137217
3.292407987,-0.03355199099,0.01787221432,-0.02236938477,0.04410829308,-0.0033691519191633513
3.297477466,-0.01903197169,0.02010384202,-0.02930927277,0.04031642197,-0.0035024385664348817
3.302546373,-0.009490668774,-0.04425245523,0.01132202148,0.04665341101,-0.003574727872388109
3.3076133,-0.01898106933,0.01313206553,-0.005397796631,0.02370376228,-0.0036468599816561476
3.312680643,-0.004634559155,0.005848973989,-0.007727622986,0.0107427088,-0.0037066942265031842
3.317746737,-0.002181112766,-0.02987986803,0.03034210205,0.04264043765,-0.003723958643815656
3.322833716,0.02162706852,-0.03200575709,0.0372133255,0.05363702243,-0.0036744980595378937
3.327877154,0.01667821407,0.01096946001,0.006019592285,0.02085011676,-0.0035779029006303225
3.332941737,-0.004853397608,0.02033317089,-0.008285522461,0.02248651127,-0.0035479590184145362
3.338007831,0.02373042703,0.008341014385,0.01078891754,0.02736980872,-0.0035001426156682294
3.343074602,0.021189183,-0.001075893641,-0.0320558548,0.03844108284,-0.003386343926952571
3.348139654,0.001993119717,0.001259386539,-0.017537117,0.01769488778,-0.0033276341425818984
3.35320882,-0.009861856699,0.001253932714,0.02774333954,0.02947068804,-0.0033475781095679467
3.358285591,0.03772068024,0.008377343416,0.003757476807,0.03882200706,-0.003276861675844411
3.363364289,-0.01239559054,0.01073378325,0.00372505188,0.01681489754,-0.0032125524346397864
3.368408248,-0.01215180755,-0.02018293738,-0.02719116211,0.03597744689,-0.0032744604694011055
3.37349205,0.009425878525,0.003750115633,-0.003212928772,0.01064112139,-0.003281389511115689
3.378556893,0.009438723326,0.0131739676,-0.003191947937,0.01651761036,-0.003233616387799277
3.3836233,0.01889911294,0.01554679871,0.01821708679,0.03050805912,-0.0031618308817878164
3.388688925,-0.002546846867,0.01077541709,0.04419803619,0.04556382826,-0.0031204136578748074
3.393757154,-0.0095680058,-0.01777023077,-0.00843334198,0.02187347923,-0.003151114081683618
3.398821216,-0.014256984,-0.01762148738,-0.00123500824,0.02270030078,-0.003211439694431899
3.403887883,0.002477824688,-0.01514613628,-0.02260684967,0.02732425134,-0.0032412802333188265
3.408952466,-0.002358794212,-0.005460649729,-0.03191566467,0.03246524691,-0.0032409788134562106
3.414027987,-0.01423206925,0.02304196358,-0.007895469666,0.02821032297,-0.0032830824514109656
3.41906731,-0.004678249359,0.008599549532,0.0230550766,0.02504745149,-0.003330730053162797
3.424127727,-0.004701644182,0.008535116911,-0.02702045441,0.02872383392,-0.003354463139529331
3.429217623,-0.004672855139,0.006095707417,0.01121425629,0.01359237905,-0.0033783207528273107
3.434284185,-0.009395360947,0.001301079988,-0.01025867462,0.01397161485,-0.0034139594973418698
3.43934955,0.01927834749,0.03217509389,0.03258323669,0.0496845918,-0.0033889290302766854
3.444421164,-0.006924152374,0.0152810514,0.01805400848,0.02464551968,-0.0033576011758221663
3.449476893,0.0001458525658,-0.00379139185,-0.01297092438,0.01351446648,-0.003374735799277672
3.454551373,0.004882901907,-0.02038350701,0.02514648438,0.03273645927,-0.0033619766422791045
3.45961856,0.002505987883,0.00354680419,0.003556251526,0.005613084726,-0.003343256199134945
3.464684445,-0.004654318094,0.008273363113,0.01065444946,0.01426984609,-0.003348697796030422
3.469758248,-0.02120736241,0.02008494735,-0.01556777954,0.03309853608,-0.0034143063320935425
3.47479455,-0.004414558411,0.01047223806,-0.001181602478,0.01142594768,-0.003478826197630861
3.479863768,0.0121884644,0.02226990461,-0.04630470276,0.05280750717,-0.0034591223855459864
3.484928456,-0.004554659128,0.01021170616,-0.003157615662,0.01161870901,-0.0034397909645682706
3.490028143,0.007350534201,0.00775834918,0.006371498108,0.01244260114,-0.0034326619206865735
3.495058768,0.009706258774,-0.001749545336,0.03482532501,0.03619496692,-0.0033897587561066453
3.500124029,0.02380889654,-0.006433278322,0.003659248352,0.02493272394,-0.0033048772515461653
3.505190643,0.01884660125,-0.004051178694,-0.02012825012,0.02787028669,-0.0031968177804062746
3.51026981,-0.02166005969,-0.006392329931,-0.000958442688,0.02260395275,-0.0032039627930384247
3.51532205,0.03551578522,-0.02059161663,-0.01995372772,0.04564577664,-0.0031689615676625776
3.520387154,0.002001583576,0.005768030882,0.011095047,0.01266398772,-0.0030739468802835337
3.525472414,0.01157879829,-0.01090371609,0.03000354767,0.03395839318,-0.003039416993939583
3.530541789,0.02577486634,0.01537525654,-0.008254051208,0.03112670252,-0.0029447371271227353
3.535586008,0.01614895463,0.02010694146,0.003692626953,0.02605212706,-0.0028390006599779954
3.540651998,-0.01477137208,-0.001431018114,0.02266216278,0.02708901748,-0.002835511250266758
3.545725852,-0.01466351748,-0.00379177928,-0.01791000366,0.0234555871,-0.0029101854163335393
3.550813768,-0.01930522919,-0.001274943352,-0.0415096283,0.04579701514,-0.0029966004811746577
3.5558708,0.004600673914,0.01779922843,0.003973960876,0.01880880374,-0.0030337811844628982
3.560936425,-0.01202711463,0.008101701736,-0.0126914978,0.0192707855,-0.003052590966338889
3.56600205,-0.004865169525,0.01273819804,0.02067279816,0.02476481673,-0.0030953759548002237
3.571069237,0.02118685842,-0.02289393544,-0.01037120819,0.03287213423,-0.0030540234299068266
3.576138768,-0.002807587385,-0.001263976097,-0.01740646362,0.01767668403,-0.003007436287772162
3.581204914,-0.01942574978,-0.001248389482,-0.02913761139,0.03504166988,-0.003063754953844724
3.586271841,0.004478693008,-0.00593188405,0.006741523743,0.01003464408,-0.0031016227766090185
3.591338248,0.002048224211,-0.01533183455,-0.005188941956,0.01631519206,-0.003085088767065637
3.596402831,-0.009970724583,-0.01985254884,-0.02176380157,0.03109987304,-0.003105150847416395
3.601469341,-0.002828359604,0.006394535303,-0.007328033447,0.01012866102,-0.003137574191428535
3.606538873,-0.007573515177,0.01104086637,-0.02389717102,0.0273922187,-0.0031639405099596705
3.611609445,-0.01227912307,0.01094952226,0.01431179047,0.02180587644,-0.003214272625770356
3.61666856,-0.02391844988,-0.01527416706,0.06882476807,0.07444622975,-0.0033058364679078235
3.621710018,-0.01655578613,0.01568609476,-0.005393981934,0.02343592679,-0.003407861048371075
3.62677356,0.01925691962,0.01556262374,-0.002974510193,0.02493735996,-0.003401022396933962
3.63184257,0.02145919204,0.02024120092,0.008930206299,0.03082128684,-0.0032978272083511394
3.63693132,0.009389847517,-0.001302272081,0.02073383331,0.02279817959,-0.003219335683328296
3.641997987,0.004550129175,0.01782435179,0.03957080841,0.04363782843,-0.003184021073385234
3.647063612,-0.000254034996,0.03203606606,0.03212070465,0.04536643836,-0.0031731398723474835
3.652116581,-0.01921457052,0.00084233284,0.01997089386,0.02772626636,-0.0032223270024202707
3.65719507,0.03086879849,-0.01351952553,0.007920265198,0.03461778288,-0.003192734068145691
3.66223731,0.004517376423,0.01050692797,-0.008769035339,0.01441173847,-0.003103521274849031
3.6673033,-0.01454219222,0.01992216706,0.003182411194,0.02486957652,-0.003128914083138749
3.672369445,-0.004884362221,0.02688342333,0.003153800964,0.02750494328,-0.0031781229539630013
3.677434341,0.009396761656,0.007660150528,0.01738166809,0.02119196596,-0.0031666955370386355
3.68250257,-0.0002983510494,-0.001950740814,-0.03739643097,0.03744846395,-0.003143639122793497
3.687566945,0.002171069384,-0.01380711794,-0.02521133423,0.02882640147,-0.003138897048835602
3.692636945,0.01876652241,-0.001759409904,0.005883216858,0.01974563565,-0.003085820253637813
3.697701789,-0.02654024959,-0.01589092612,-0.001286506653,0.03096064406,-0.003105506611370443
3.702766216,-0.01440212131,0.01518061757,0.005850791931,0.02172795467,-0.0032091814356854345
3.707833456,-0.00236749649,0.0007516443729,0.001047134399,0.002695644514,-0.003251669274735869
3.71290007,-0.023740381,-0.01365911961,0.01528549194,0.03136596089,-0.003317808543536428
3.717965383,-0.0116776526,0.005620330572,0.01516532898,0.01994850593,-0.0034075102565506903
3.723055956,-0.01391637325,0.01513308287,-0.006340026855,0.02151445054,-0.0034726543850273454
3.728113612,0.007774740458,-0.00161677599,0.01033401489,0.01303274405,-0.0034881855179974774
3.733165435,0.0005705654621,0.0127069056,0.03638076782,0.03854025509,-0.0034671060138028783
3.738256529,0.0005505084991,-0.0087236166,0.0004472732544,0.008752405358,-0.0034642522673441673
3.743315383,0.01467508078,0.005600810051,0.002823829651,0.01595935722,-0.003425740250730701
3.748384133,0.007351577282,0.02217918634,0.005178451538,0.0239327883,-0.0033699164392048202
3.753448977,-0.004548072815,0.01957175136,-0.01149749756,0.02315018072,-0.003362816782815487
3.758514862,0.0002281069756,0.0003052055836,0.0004720687866,0.0006066565584,-0.003373759007888653
3.763580487,0.01446425915,0.01218321919,0.04798030853,0.05157281871,-0.003336545999311158
3.768645852,-0.01412582397,0.04064312577,-0.004680633545,0.04328176182,-0.00333568885045338
3.773714081,-0.02109542489,0.007051974535,-0.01889610291,0.02918578423,-0.003424943527897613
3.778784445,-0.00900259614,0.002299368382,-0.01873779297,0.02091503568,-0.0035012474890484878
3.783850279,0.01259335876,0.006982028484,0.005165100098,0.01529770131,-0.0034921523853653274
3.788917466,0.0007045865059,0.01173424721,-0.002004623413,0.01192507923,-0.0034584607976762883
3.793983612,0.0007380247116,0.002139359713,0.03364372253,0.03371975098,-0.003454806558151742
3.799055227,-0.003982245922,-0.007429927588,0.009604454041,0.01277918792,-0.003463033278628734
3.804116685,0.01029136777,0.002191215754,0.002400398254,0.01079238569,-0.003447066601003463
3.809521164,-0.01350784302,-0.009643793106,-0.01899909973,0.02522757141,-0.0034557582874747885
3.814217258,-0.003959983587,-0.01906698942,0.00491809845,0.0200852993,-0.0034967735653358774
3.819312518,-0.003939837217,-0.000003546476364,-0.002252578735,0.004538330181,-0.0035168993858107705
3.824357623,-0.01806682348,-0.01419767737,-0.004610061646,0.02343580214,-0.003572412342768642
3.829429654,-0.01075270772,-0.03060090542,-0.03782558441,0.04982781324,-0.003645499120594577
3.834507831,-0.01062613726,-0.006535440683,0.03138065338,0.03376939716,-0.003699781900026574
3.839558664,0.01082468033,-0.008803933859,0.004990577698,0.01481852966,-0.003699280496081644
3.84462356,-0.01061087847,-0.01342883706,0.004949569702,0.01781635897,-0.0036987390539888966
3.84969231,0.01559564471,-0.01320764422,-0.009339332581,0.02246973816,-0.003686105787049404
3.854752779,0.006057262421,-0.001160651445,0.002614974976,0.00669892782,-0.0036313188544012513
3.859821945,-0.02246513963,-0.03435570002,-0.03541469574,0.0542143643,-0.0036729059810412675
3.864885643,-0.01279583573,0.00398978591,0.0005159378052,0.01341335139,-0.0037621814462455053
3.869958039,0.03010985255,-0.01018732786,0.01714420319,0.03611521248,-0.0037182696714146528
3.8750183,0.01796844602,-0.01949548721,0.01225662231,0.0292089689,-0.003596625301814597
3.880084133,-0.001250475645,-0.02635040879,0.01453781128,0.03012068541,-0.0035542800788052483
3.885153091,0.01072916389,0.01673814654,-0.04022026062,0.04486590991,-0.0035302565425007486
3.890228925,0.01073136926,-0.01902934909,-0.01613426208,0.02715866024,-0.0034757914905902965
3.895283664,-0.01550659537,-0.03074777126,0.01250839233,0.03663795595,-0.003487860251416316
3.900347466,0.01316347718,0.00984120369,-0.004228591919,0.0169707811,-0.0034937927947046882
3.905415435,0.006018638611,-0.002009212971,0.01956272125,0.02056601591,-0.0034451856106130874
3.91047106,0.01075637341,-0.006688714027,-0.01385688782,0.0187736998,-0.003402781525538755
3.915564758,-0.006084531546,0.01242440939,0.01239776611,0.0185766541,-0.003390883049759271
3.920631164,-0.003616511822,0.007577002048,0.03367233276,0.03470325794,-0.003415457761922219
3.925698612,0.01545727253,-0.02331095934,0.0001354217529,0.02797045653,-0.003385456542338106
3.93076632,0.03907346725,0.01020017266,-0.02599334717,0.04802534188,-0.003247283609223597
3.935830123,-0.008676350117,-0.00413736701,0.007476806641,0.01217782799,-0.00317032110275888
3.940895227,-0.02276831865,-0.01360216737,-0.04010009766,0.04807736602,-0.003249956361534081
3.945961373,-0.005910485983,0.003249168396,-0.001753807068,0.006968986946,-0.0033226018672222065
3.95102856,-0.01769474149,-0.01814836264,0.01726341248,0.03066744777,-0.003382407918113824
3.956096789,0.001496344805,-0.02026334405,-0.03513813019,0.04058978139,-0.003423456510030028
3.961160487,-0.01035937667,0.006193339825,-0.008708000183,0.01488299064,-0.0034458963683944
3.96622507,-0.003010243177,0.008671998978,-0.008633613586,0.01260176233,-0.003479752143091191
3.971300591,-0.03372576833,0.01810476184,-0.04182434082,0.05669643142,-0.0035729793420211965
3.976364393,-0.00005108118057,-0.01546135545,-0.03673744202,0.03985844663,-0.0036584989810738585
3.981408195,-0.00001636147499,-0.005777835846,0.001577377319,0.005989304965,-0.003658669064774358
3.986468612,-0.0142326057,-0.01280134916,-0.01506328583,0.02435865729,-0.0036947219226367367
3.991561789,-0.004681974649,-0.007942914963,0.0135717392,0.0164074035,-0.0037428895754358263
3.996626112,0.00241881609,-0.01019516587,-0.003164291382,0.01094553874,-0.0037486202584073244
4.001691477,0.00486317277,-0.002980738878,-0.01739597321,0.01830724276,-0.0037301772926564085
4.006757362,-0.002267092466,0.02075025439,0.03738307953,0.04281597133,-0.003723601570520993
4.011820331,0.00006005167961,0.006326973438,0.0156955719,0.01692291867,-0.0037291886600626066
4.016865904,0.007225364447,0.01345774531,-0.008190155029,0.01733191968,-0.0037108091106115115
4.021929914,0.04763579369,0.01097074151,-0.03900718689,0.06253868114,-0.0035719003839028395
4.027051945,0.03064736724,-0.01282051206,-0.00779914856,0.03412408777,-0.0033714159953721163
4.032071268,0.004300028086,0.00867113471,0.008893966675,0.01314463624,-0.003283709862797175
4.037134237,0.00905457139,0.006228387356,-0.005434036255,0.01225996828,-0.0032499029012199735
4.042199862,-0.0004861652851,0.01573359966,0.004114151001,0.01626987257,-0.003228200735132405
4.047265748,0.01370379329,0.02985858917,0.02783870697,0.04306184975,-0.003194721236800794
4.052332518,0.01357683539,0.0249158144,-0.0008964538574,0.02838893968,-0.0031256089013123123
4.057399654,-0.0126824379,0.01040571928,-0.02464675903,0.02960719432,-0.003123342884452361
4.062465904,-0.02198502421,0.01982837915,-0.007816314697,0.03062026592,-0.003211159899409748
4.067531685,-0.009939342737,0.03867030144,0.006503105164,0.04045334503,-0.003292020825168316
4.072601945,0.002058088779,0.02177426219,-0.005427360535,0.02253465033,-0.003312000828514859
4.077661268,-0.009747892618,-0.006806731224,-0.01250839233,0.01725725584,-0.0033314534292289287
4.082726008,-0.02145537734,-0.001996040344,-0.00528049469,0.02218560385,-0.0034104716539724677
4.087801268,0.01197057962,0.01708430052,0.006643295288,0.02189295487,-0.003434540561210671
4.092877727,0.000136911869,0.02887687087,-0.01717185974,0.03359710081,-0.003403808969142289
4.09794205,-0.002148360014,0.007313489914,-0.0003995895386,0.007632971719,-0.0034089022806943047
4.103020435,-0.04025873542,-0.01169666648,0.01624011993,0.04495908451,-0.0035165820593671022
4.108082414,0.005199193954,0.009785681963,-0.01240158081,0.01663100706,-0.0036053173906923515
4.113130123,0.01242789626,-0.004541903734,0.009076118469,0.01604547978,-0.003560829179733839
4.118184029,-0.01134231687,-0.009200304747,0.03275489807,0.03586331143,-0.0035580859716375407
4.123276945,-0.006409704685,-0.01382163167,-0.02690792084,0.03092180493,-0.0036032907489424405
4.128345175,0.005560725927,-0.03508126736,-0.01955795288,0.04054787927,-0.0036054421587477722
4.133408977,-0.001572906971,0.008131980896,-0.00751209259,0.01118189093,-0.003595345395945255
4.138475383,0.003126382828,-0.006079792976,-0.007441520691,0.01010516613,-0.003591410126243874
4.143541737,-0.01106145978,-0.03210291266,-0.00262928009,0.0340568056,-0.003611511080671909
4.148607623,0.01277089119,0.00612398982,0.006892204285,0.01575123465,-0.003607181188347975
4.153640227,-0.001650810242,-0.003370314837,0.01396751404,0.01446290583,-0.0035791997064183673
4.158741737,-0.001595020294,-0.01510772109,-0.009901046753,0.01813334092,-0.003587479024887221
4.163806841,-0.01590225101,0.004077404737,-0.005061149597,0.01717911673,-0.003631791774322715
4.168872466,-0.003803104162,-0.003080308437,-0.03115367889,0.0315357513,-0.0036817017442192903
4.173937831,0.01996874809,-0.02205607295,-0.00238609314,0.02984819416,-0.003640759300741614
4.179012831,0.01978710294,-0.02899602056,-0.03562259674,0.05001267889,-0.0035398788287529944
4.184075591,0.005460321903,0.0164899528,-0.0400762558,0.04367882711,-0.0034759680024539163
4.189129914,-0.004048109055,-0.007345855236,0.003017425537,0.008913676735,-0.0034723991125146484
4.194193508,0.005574285984,0.004697829485,-0.01363563538,0.01546197976,-0.003468535142344333
4.199243352,0.0103700161,0.002288162708,0.01023006439,0.01474541081,-0.003428277023237794
4.20431231,0.02467796206,0.01662942767,0.007768630981,0.03075534594,-0.003339448658598818
4.20939481,-0.01587483287,0.02831915021,0.007699966431,0.03336576195,-0.0033170777065447184
4.214444029,-0.001502007246,0.01626238227,0.01951599121,0.02544788824,-0.003360947442181553
4.219512779,0.003300905228,-0.009946882725,0.01460361481,0.01797503871,-0.0033563883601084206
4.22459981,-0.006244003773,-0.0002543330193,-0.0187702179,0.0197831582,-0.0033638741768756554
4.22965132,0.003346920013,-0.01202315092,-0.009108543396,0.01545068265,-0.0033711915006678994
4.234710018,-0.001392751932,-0.02849468589,0.005221366882,0.0290025784,-0.0033662487275863896
4.239778091,0.008212417364,-0.02339690924,-0.001947402954,0.02487270671,-0.0033489674464639145
4.24484356,-0.008497536182,-0.01364266872,-0.02805995941,0.03233715902,-0.003349689576730866
4.249915383,0.01060959697,-0.004080474377,-0.02545452118,0.02787734685,-0.0033443335774898794
4.254976425,-0.006122767925,-0.01364982128,-0.02049446106,0.02537378258,-0.00333297956236809
4.260044966,-0.05116763711,0.0006700754166,0.03431034088,0.06160986593,-0.0034781689457813415
4.265113039,0.00155505538,0.007739692926,0.01026535034,0.01294984407,-0.0036038890387444103
4.270167623,0.01815325022,0.0290556848,0.02680969238,0.04350325182,-0.003554080395667977
4.275256373,0.01556125283,-0.002011060715,0.02896785736,0.03294440339,-0.0034682980569701242
4.280324862,0.01314997673,-0.00673815608,0.00496673584,0.01558823596,-0.003395536781369468
4.285391529,-0.02477505803,0.005198538303,-0.0188369751,0.03155407948,-0.0034249869892669766
4.290458195,-0.000825971365,0.00510814786,0.02170181274,0.02231017883,-0.003489842921867304
4.295522258,0.01099130511,0.0002653002739,0.009644508362,0.01462517398,-0.0034641039766169467
4.300587883,-0.01282119751,0.01684045792,0.01193618774,0.02429931493,-0.003468738750961325
4.30565455,-0.01505303383,0.01907852292,0.01658725739,0.02942313668,-0.0035393534750016897
4.31072382,-0.003062665462,0.01179793477,-0.03818798065,0.04008607053,-0.0035852701604766673
4.315790748,0.00649702549,-0.002607196569,0.0001354217529,0.007001939247,-0.0035765693329826895
4.320854914,-0.005345880985,0.01647377014,0.007259368896,0.01877929666,-0.003573654539551035
4.3259208,0.01136431098,0.01169246435,0.002450942993,0.01648843256,-0.003558410199424205
4.33099606,-0.005376815796,-0.002709716558,0.004804611206,0.007703051394,-0.0035432161520204393
4.336054654,0.00177937746,0.00676587224,0.02139186859,0.02250678238,-0.003552315142011369
4.341093508,0.008927851915,0.00666052103,-0.01679897308,0.02015625404,-0.003525339059228799
4.346158352,0.02562084794,-0.01952520013,-0.004786491394,0.03256642119,-0.003437847171644607
4.35125257,-0.003012120724,0.01157256961,0.01663208008,0.02048470957,-0.003380260279074186
4.356317935,0.00175127387,0.004354536533,-0.009636878967,0.01071906642,-0.0033834536038364906
4.361384081,-0.0195517242,0.01620095968,0.01657104492,0.03032062901,-0.0034285434439552537
4.366451268,0.00910487771,0.004245400429,-0.02394866943,0.0259703868,-0.0034550115063178106
4.371498195,-0.00998800993,0.02084383368,-0.01662254333,0.02846989097,-0.0034572400582406552
4.37658382,-0.009867787361,0.03497850895,-0.01885795593,0.04094498526,-0.0035077296277896716
4.381629862,-0.007370829582,0.01573961973,0.01455783844,0.02267146705,-0.003551223020347817
4.386692987,-0.00008901953697,-0.001013100147,-0.006947517395,0.007021559253,-0.0035701080946330607
4.391759445,0.0117790699,-0.0009453594685,0.002614974976,0.01210282142,-0.0035404945200419678
4.396824393,-0.007231980562,-0.008006989956,-0.0259141922,0.02807060363,-0.003528979134517805
4.401891998,0.01656842232,0.006420046091,-0.01619052887,0.02403877773,-0.003505322435050283
4.406960539,0.002266138792,0.004045963287,-0.03505992889,0.03536529115,-0.0034575905624436945
4.412025904,-0.01671773195,-0.01018387079,0.01749515533,0.02625403295,-0.0034941918595320846
4.417094966,-0.01421564817,0.01371353865,0.03160572052,0.03727019405,-0.0035725934703810017
4.422150487,-0.006985753775,0.01365411282,0.0360956192,0.03921899129,-0.0036261855367621964
4.427211373,-0.01169133186,-0.01015800238,0.009667396545,0.01825734945,-0.0036734468373676816
4.432292258,0.005121648312,0.02086159587,-0.009418487549,0.02345517792,-0.0036901367406645745
4.437354445,-0.01378682256,0.00178822875,0.02391624451,0.02766335102,-0.003712069106880058
4.442422675,0.01729664207,0.03751131892,-0.002412796021,0.04137746317,-0.0037031748206124786
4.447499341,0.002884030342,0.02062505484,-0.004765510559,0.02136400264,-0.0036519495538669105
4.45257132,-0.008928596973,-0.007998257875,0.004775047302,0.01290321858,-0.003667278511375171
4.457635904,-0.01821532845,0.02290117741,-0.00002384185791,0.02926196654,-0.0037360148565724347
4.46270257,-0.01554450393,0.01564085484,0.01185131073,0.02503440649,-0.003821539754015162
4.467768977,-0.003443390131,0.01087084413,0.014128685,0.01815631921,-0.003869639953708118
4.472835123,-0.008022278547,0.01083737612,0.02350997925,0.02710211797,-0.0038986833294633047
4.477900487,0.006282567978,0.01787653565,0.01143741608,0.02213268339,-0.0039030894631066197
4.482967935,0.01101574302,-0.001276016235,-0.0005359649658,0.01110234525,-0.0038592603173715294
4.488007935,0.001456081867,0.001162648201,0.008971214294,0.009162674891,-0.0038278313186562883
4.49307606,-0.01039683819,0.0155133009,-0.03623485565,0.04076421854,-0.003850487753976039
4.498140643,-0.007843285799,0.01306560636,-0.002676010132,0.01547217605,-0.003896677064912332
4.503238508,0.01839256287,0.02241149545,0.05673027039,0.0637093798,-0.0038697876697345503
4.508304393,-0.01492682099,0.0294084847,0.04675483704,0.05721611437,-0.003861009144832674
4.513368195,-0.01703450084,0.0150193572,-0.01777553558,0.02883964242,-0.003941932047535366
4.51843382,-0.004973113537,-0.02780619264,-0.01762676239,0.03329593007,-0.003997673208324615
4.523499445,-0.01671552658,-0.003759860992,0.05853652954,0.0609923821,-0.004052606467120947
4.528565591,-0.02836248279,0.008206248283,-0.04172420502,0.0511144033,-0.004166792355549839
4.533631216,-0.004279345274,-0.01075726748,-0.02712249756,0.02949002328,-0.0042494679856931936
4.538695539,-0.006527841091,-0.01768508554,0.006361961365,0.01989596723,-0.004276833526929972
4.54376455,0.02222874761,0.008598208427,0.02530574799,0.03476244079,-0.004237039493002579
4.548828091,0.0007029771805,0.01080295444,-0.001042366028,0.01087586909,-0.00417898162866387
4.553881373,-0.03484717011,0.01784241199,-0.04854869843,0.06236708306,-0.004265251746431464
4.558942154,-0.01076459885,-0.003631204367,0.01599693298,0.01962050199,-0.004380667333296044
4.5640133,-0.01053124666,-0.001063942909,-0.0007629394531,0.01061231395,-0.004434664504183368
4.56907705,-0.02692878246,-0.008124619722,-0.02213954926,0.03579564795,-0.004529508615411563
4.574140487,-0.00529012084,0.00624909997,0.01367855072,0.01594174955,-0.004611077808945891
4.579205748,0.00429302454,-0.003250211477,-0.01256561279,0.01367071905,-0.004613603085446707
4.584270904,0.006729066372,0.03484681249,0.006542205811,0.036088518,-0.004585688780488973
4.589335748,-0.02649065852,0.01318377256,-0.05052947998,0.05855591512,-0.004635733471199591
4.594405018,0.01420322061,0.02025553584,0.01878166199,0.03106073139,-0.00466687764138661
4.59947382,-0.01675778627,0.003462970257,-0.03126239777,0.03563920703,-0.0046733519351498795
4.604538925,-0.01415362954,-0.01789078116,-0.06426048279,0.06818955146,-0.004751636718538033
4.609618977,-0.006869643927,-0.04381534457,-0.03046703339,0.05380721653,-0.004805036379749326
4.614669289,-0.006877034903,-0.007760226727,0.04818534851,0.04928836109,-0.004839748888276972
4.619737987,0.005045175552,0.0136371851,-0.006855964661,0.01607578506,-0.004844391459191318
4.624811268,0.02167123556,-0.01972898841,0.02883338928,0.04111252573,-0.004776621528749962
4.629880695,-0.009302318096,-0.02901175618,0.00008583068848,0.03046674393,-0.004745269866673585
4.634962675,-0.01394128799,-0.02396595478,0.06422519684,0.06995428799,-0.00480433163730205
4.640030643,-0.01859143376,-0.00006008148193,-0.01232910156,0.02230810984,-0.00488676903369301
4.645055175,0.01005488634,-0.004756182432,-0.009847640991,0.01485590939,-0.004908215111533657
4.650121581,-0.009045958519,-0.01880848408,-0.0358877182,0.04151525932,-0.0049056592925507195
4.655214498,-0.008931070566,-0.0137385726,-0.01895427704,0.02505547877,-0.0049514370510689715
4.660281164,-0.03732377291,0.0125118196,0.01446056366,0.0419370666,-0.005068615972456543
4.665345748,-0.01559603214,-0.008917361498,0.007213592529,0.01935953181,-0.005202624371426226
4.670412675,0.02980780602,-0.006310462952,-0.02847766876,0.04170497405,-0.005166619361030982
4.675479341,-0.008516520262,-0.02515509725,0.01690292358,0.03148045204,-0.005112681444207791
4.680547779,-0.006139785051,-0.003460675478,-0.01648902893,0.01793213067,-0.0051498237316017995
4.685614445,0.01052737236,-0.008230000734,-0.03060626984,0.03339614101,-0.005138708511881528
4.690680591,0.01290413737,-0.02235966921,-0.01847362518,0.03174502159,-0.00507935478723523
4.695745175,0.005761355162,-0.005487501621,0.01731204987,0.01905289894,-0.005032088309820383
4.700812883,-0.006229221821,-0.002957046032,0.01480007172,0.01632756713,-0.0050332738156257575
4.705875123,0.01043379307,-0.01728898287,-0.04471588135,0.04906407047,-0.005022631541245995
4.710960279,0.0009887814522,0.0114710927,-0.003959655762,0.01217548891,-0.00499358875456249
4.71601731,0.01042041183,0.02811536193,-0.02054786682,0.03634932448,-0.0049647404325059525
4.721052518,0.01026666164,0.02080905437,-0.01324462891,0.0267178083,-0.0049126585735895885
4.726112675,0.00784483552,0.027767241,-0.003632545471,0.02908189306,-0.0048668350640222536
4.731211529,-0.008862107992,0.03466749191,0.05341148376,0.06428964576,-0.004869428525928723
4.736255123,0.0007011890411,0.04156205058,0.01258468628,0.04343121047,-0.004890008706856346
4.741316789,0.01498538256,0.04121857882,0.01723003387,0.04712119478,-0.004850308613791423
4.746382675,-0.001781016588,0.01480123401,0.007586479187,0.01672731941,-0.004816862707433201
4.751453508,-0.006579726934,-0.006642699242,-0.03047943115,0.03188124814,-0.0048380606745111465
4.756552675,0.00533747673,0.0004373192787,-0.02547740936,0.0260341755,-0.004841227895134136
4.761604185,0.0005267262459,-0.02094331384,-0.01813697815,0.02771010306,-0.004826416355146741
4.766647831,-0.0113235116,0.01011180878,-0.01561164856,0.02177599969,-0.00485364393677878
4.771716268,-0.01124435663,-0.01129731536,-0.04160881042,0.04455735624,-0.004910835845952801
4.776783716,0.01491293311,0.0005731582642,0.001496315002,0.01499876805,-0.004901540685679594
4.781848664,-0.006556719542,-0.01141273975,0.06324100494,0.06459617563,-0.004880378792080175
4.786916633,-0.02774325013,0.002988368273,-0.01568222046,0.03200859746,-0.004967294383579488
4.791982206,0.005834430456,0.0006428956985,-0.03455638885,0.03505136095,-0.005022784746280727
4.797046789,-0.01798480749,-0.001787215471,0.02986907959,0.0349114502,-0.005053553042765716
4.8021133,0.0106587708,-0.00414288044,-0.01313877106,0.01741838564,-0.005072111765503868
4.807164081,-0.006069093943,0.007776468992,-0.04628562927,0.04732511858,-0.005060521039171127
4.812236164,-0.003606081009,-0.006486535072,0.006362915039,0.009775768271,-0.00508505768436916
4.817331164,0.01784089208,-0.008857518435,0.02768611908,0.03410680654,-0.005048794503165785
4.822399654,-0.001322388649,0.01260325313,0.02983188629,0.03241191356,-0.0050069325684382925
4.827466581,-0.01077419519,-0.01605534554,-0.02030658722,0.02803952366,-0.0050375788220690925
4.832529341,-0.03683054447,-0.01106348634,0.03688049316,0.05328283506,-0.0051580845079496115
4.837594185,0.008489787579,-0.01329401135,0.0437078476,0.04646701166,-0.005229855264197035
4.842663977,-0.005899071693,-0.008375018835,-0.01603984833,0.01903199206,-0.005223288068860485
4.847730904,-0.003487169743,0.001254022121,-0.03253173828,0.0327421276,-0.005247067768940778
4.85279705,-0.003423690796,-0.003402620554,-0.01800251007,0.01863839731,-0.0052645734831788865
4.857862675,0.02271810174,0.003805160522,0.005905151367,0.02377944924,-0.005215704357959789
4.862931425,0.01538449526,-0.008155584335,0.02248287201,0.02843722532,-0.0051191380886879065
4.867994706,0.003308922052,0.02986964583,0.005666732788,0.03058196475,-0.0050718130763374464
4.873068664,-0.003912687302,-0.01091700792,-0.02289104462,0.02566106209,-0.005073344816097626
4.878129602,-0.04190385342,0.003430038691,-0.07971286774,0.09012124821,-0.005189282152081878
4.88316507,-0.001077234745,0.03196674585,-0.03628921509,0.04837293052,-0.005297497099111915
4.888229133,0.005939006805,0.0007171332836,0.04953289032,0.04989281817,-0.005285186939110176
4.893324393,0.003446280956,0.0006092786789,-0.04827976227,0.04840644087,-0.005261276698451619
4.89839132,-0.003776371479,0.007733672857,0.03526973724,0.03630461462,-0.005262112970743334
4.903457466,0.008067935705,-0.001827955246,0.02785205841,0.0290546066,-0.005251242125274687
4.908523091,-0.01349848509,0.01001575589,0.08701133728,0.08861995983,-0.005264996688638877
4.913582883,-0.01335406303,-0.004478394985,-0.02774810791,0.03111823443,-0.005332930842717472
4.918634966,-0.02518758178,0.002584517002,-0.03227043152,0.04101798087,-0.005430288636985788
4.92370382,-0.02277371287,0.01940310001,-0.001101493835,0.02993886399,-0.005551843037101706
4.928781477,-0.006022632122,0.0003443956375,-0.001084327698,0.006129149418,-0.005624952018463231
4.933833248,-0.0131637156,0.02167439461,0.03930854797,0.04677846442,-0.005673414535972187
4.938896477,0.01771351695,0.009727299213,0.03661441803,0.04182110281,-0.005661896192902409
4.943968716,0.02003052831,0.03108111024,-0.04208374023,0.05602052008,-0.005566172783709649
4.949036373,0.01520395279,0.03800582886,-0.01085186005,0.04234815314,-0.005476894651315747
4.954116373,0.003181904554,0.02586439252,-0.0250120163,0.03612052431,-0.005430194573661991
4.9591858,0.01506507397,0.02084428072,-0.001051902771,0.02573998819,-0.005383943710862994
4.96422981,-0.008779138327,0.001565396786,0.0013256073,0.009015596018,-0.005368090549741667
4.969298508,-0.008669108152,-0.003195852041,-0.04144668579,0.04246403972,-0.005412310495757471
4.974360383,-0.0204872787,0.01821562648,0.05629634857,0.06261642356,-0.0054861034886057045
4.979426685,-0.03220945597,-0.02464091778,0.03207492828,0.05170517292,-0.005619592274731759
4.98449856,-0.02720522881,-0.02448484302,-0.02758312225,0.04583078272,-0.005770264201916029
4.989552727,-0.03633752465,-0.01007455587,0.01302242279,0.03989355674,-0.005930842045729389
4.994640539,-0.02173954248,-0.00512778759,-0.03221797943,0.03920331761,-0.006078584645263779
4.999725435,-0.01449686289,-0.01922869682,0.003690719604,0.02436233212,-0.006170713821623933
5.004781685,-0.01908788085,-0.007185786963,-0.00346660614,0.02068816299,-0.00625562025189162
5.009816893,-0.02607542276,-0.009554594755,-0.01531791687,0.0317152413,-0.006369323565713366
5.014881477,-0.0188036859,0.004776865244,0.01331996918,0.02353335131,-0.0064829705735402225
5.019976477,-0.009157717228,-0.01896092296,0.003708839417,0.02138073605,-0.0065542022480088
5.02504106,-0.02809602022,-0.02354690433,-0.0272026062,0.04564893032,-0.006648539570691607
5.030112414,0.003111630678,0.002837359905,0.03241157532,0.032683988,-0.006711891912612289
5.035173612,0.01737573743,0.01231873035,-0.003492355347,0.0215838809,-0.006660046599365553
5.040241216,0.01019331813,0.004988133907,-0.02247619629,0.02517865393,-0.0065901920712495175
5.045309706,0.01251837611,0.009698361158,0.02522087097,0.0297801995,-0.006532635073680266
5.05037455,0.002899169922,-0.002255141735,0.008382797241,0.009152165868,-0.0064935913409228194
5.055440435,-0.001938462257,-0.02360910177,0.03444671631,0.04180578413,-0.006491157923648063
5.06050632,-0.01381522417,-0.01871046424,0.003274917603,0.02348759196,-0.006531061105530682
5.065573508,0.007664531469,-0.01855167747,-0.003877639771,0.02044372446,-0.006546644463653784
5.070638873,0.02896773815,-0.006462335587,0.01278591156,0.03231673203,-0.006453866555454459
5.075717518,0.002582639456,0.04348278046,0.0008029937744,0.04356681101,-0.006373749971716044
5.080777675,-0.007003366947,0.01462107897,0.0007991790771,0.01623150597,-0.0063849347592953845
5.085818352,-0.01181489229,0.01930499077,-0.006326675415,0.0235010887,-0.006432363142553378
5.090887883,-0.01410719752,0.01212459803,0.01748752594,0.02553100983,-0.006498069561491658
5.095961164,0.01925262809,0.0142454803,0.04584121704,0.05172054309,-0.0064850174539178435
5.101010695,0.00962677598,0.04728332162,0.01457118988,0.05040542524,-0.006412103730861347
5.106078039,-0.01422157884,0.02313891053,-0.009305000305,0.02870967635,-0.006423745454213248
5.111149237,-0.02842366695,0.02770000696,0.03591060638,0.05352351707,-0.006531876696793136
5.116213612,-0.002019047737,0.006040155888,-0.01427841187,0.01563435583,-0.0066089633583896225
5.121283404,-0.009087055922,0.02262568474,-0.01891040802,0.03085611328,-0.006637116176130405
5.126346529,-0.009024083614,0.0176910758,-0.02587890625,0.03262094476,-0.006682965657812013
5.131411841,0.01231405139,-0.02283549309,0.05510902405,0.06091059134,-0.006674633301184323
5.136476893,0.005067169666,-0.02971899509,-0.007110595703,0.03097507787,-0.006630614906948256
5.141540487,-0.01400187612,-0.01759716868,0.007203102112,0.02361350377,-0.006653235769944373
5.14660856,-0.002074867487,-0.02700188756,0.0142698288,0.03061102776,-0.006693974825045648
5.151681008,-0.02350234985,-0.03632619977,0.01177501678,0.04483976203,-0.006758844377508963
5.15674856,-0.004317432642,-0.02646633983,0.002177238464,0.02690441852,-0.006829333474712411
5.161805904,-0.0280495882,0.002317637205,-0.0002126693726,0.02814597785,-0.006911179054039006
5.166911633,-0.01837903261,-0.00482326746,-0.03346633911,0.03848439427,-0.007029705031888802
5.171926477,-0.02531597018,-0.002507835627,-0.02606678009,0.03642340745,-0.007139266843174523
5.177024341,-0.01081714034,0.006963551044,-0.009224891663,0.01583035674,-0.007231367684838482
5.182090487,0.01776665449,0.009233921766,-0.006773948669,0.02113777906,-0.007213764058182007
5.187153248,0.01047921181,-0.0002360343933,-0.01146316528,0.01553298911,-0.007142263023024573
5.192221216,0.01037910581,0.01412835717,0.01951980591,0.02623659918,-0.007089408379908579
5.197287362,-0.01352763176,-0.01216739416,0.002728462219,0.01839801097,-0.007097383825982336
5.202353248,-0.001497894526,-0.007362037897,-0.009175300598,0.01185872805,-0.007135442627609774
5.207418873,0.01987922192,-0.02630212903,-0.001971244812,0.03302834028,-0.007088886171819658
5.212485279,0.0006916224957,-0.007130026817,-0.01858520508,0.01991796857,-0.007036776047033273
5.217554029,-0.004134982824,0.0190089345,-0.01367950439,0.02378164238,-0.007045502813365308
5.222620175,-0.006488829851,-0.01207855344,0.01493930817,0.02027755642,-0.007072413706409407
5.22766955,0.007751375437,-0.004900366068,0.04569625854,0.04660735407,-0.007069226173350246
5.232758716,0.0147408843,-0.00961202383,0.01918697357,0.02603506534,-0.0070119927515918876
5.237818873,0.01703038812,-0.00958108902,0.01902294159,0.02727093128,-0.006931608938324403
5.242862154,-0.01638421416,0.01663252711,-0.01676750183,0.02874426116,-0.006929979519896823
5.247925956,-0.01145973802,0.004567027092,-0.000001907348633,0.012336261,-0.007000477650265311
5.253017831,0.005356401205,0.02105802298,0.004739761353,0.02223953019,-0.00701601636433776
5.258084237,0.02192533016,0.04939183593,-0.002425193787,0.0540939472,-0.006946906200598747
5.263150383,0.004942327738,0.03472986817,-0.004773139954,0.03540301134,-0.006878848461804088
5.26821731,-0.006991773844,0.02013802528,-0.02611541748,0.03371112567,-0.006884040658708856
5.273284654,-0.02352049947,0.008151710033,0.03586673737,0.04365875767,-0.006961348751260891
5.278327518,0.01704445481,-0.01086580753,0.02606868744,0.03298720476,-0.006977677657500047
5.283394029,0.02169284225,0.02253937721,0.02110099792,0.03773400381,-0.00687954618666767
5.288470175,-0.01402699947,0.01998314261,-0.007584571838,0.02556576682,-0.0068600897180855075
5.293527466,-0.02342256904,0.01269710064,-0.0003938674927,0.02664560445,-0.00695478640097526
5.298594393,0.01719605923,0.003198325634,0.02336788177,0.02918889581,-0.0069705610363113
5.303657623,0.01466202736,-0.006327629089,-0.05521774292,0.05748054514,-0.006889908626428754
5.308747466,0.01695486903,-0.01814755797,-0.007247924805,0.02587148736,-0.006809446107042578
5.313791789,0.004871279001,0.001116663218,0.004697799683,0.006858980807,-0.00675439703678549
5.318858612,-0.002360790968,0.01299005747,0.002285957336,0.01339927341,-0.006748036937532076
5.323921529,0.01437902451,0.008135706186,0.004638671875,0.01715993408,-0.006717613278077201
5.329020956,-0.009509056807,-0.008503377438,-0.03578090668,0.03798687763,-0.0067051962556803095
5.334051998,0.02138537169,0.02487960458,0.03341388702,0.04682752067,-0.006675321136189505
5.339117883,-0.00261798501,0.02467301488,0.01651000977,0.02980254907,-0.006627784424853788
5.344189498,-0.007362484932,0.003038287163,-0.01213645935,0.01451657738,-0.006653092975386237
5.349274393,0.01174506545,-0.001730978489,-0.02391338348,0.02669817894,-0.0066419504945046896
5.35431007,0.002132356167,-0.01369285583,-0.007089614868,0.01556611328,-0.006607009388076672
5.359400591,0.009230792522,0.01731038094,-0.009405136108,0.02175576714,-0.006578087214562936
5.364467518,-0.002582728863,0.0006965398788,0.0001773834229,0.00268088065,-0.006561244587937189
5.369510487,-0.01202660799,-0.01588329673,0.004927635193,0.02052315773,-0.006598081804367313
5.374602675,-0.000004291534424,-0.01574161649,0.02626609802,0.03062199232,-0.006628713605461051
5.3796683,-0.01907098293,-0.006049096584,-0.00720500946,0.02126513863,-0.006677027699065469
5.384735748,0.011952281,-0.01302033663,-0.00476360321,0.01830513869,-0.006695064524994358
5.389802154,-0.01666900516,0.003771871328,0.04516506195,0.04829042935,-0.006707012944786641
5.394868039,-0.00693410635,-0.01530882716,0.01152515411,0.02037820398,-0.006766798269062566
5.399934706,-0.01396605372,-0.01760604978,-0.002827644348,0.02264992755,-0.006819745344723254
5.405015175,-0.001984775066,0.001654446125,0.01383018494,0.01406948966,-0.006860264190309045
5.410074289,0.0241547823,0.01817458868,0.008959770203,0.03152850557,-0.006804183893320242
5.41510455,0.007312059402,0.02763366699,0.001763343811,0.02863904931,-0.006725040680016871
5.420174341,-0.01166412234,0.02740624547,-0.005381584167,0.03026739977,-0.006736072704774109
5.425265956,0.01465585828,-0.006126999855,0.008910179138,0.01821333581,-0.006728456320980048
5.430312102,-0.02343812585,0.003429085016,0.03971672058,0.04624415921,-0.006750614623164699
5.435397727,-0.006631761789,0.01522666216,-0.0009994506836,0.01663822126,-0.006827076709326737
5.440463873,-0.008912712336,0.005602627993,-0.02474784851,0.02689390056,-0.006866451997031972
5.445530018,0.01247408986,-0.001515716314,0.01347255707,0.01842308627,-0.006857430769563807
5.450583248,0.007603883743,0.003198862076,0.008606910706,0.01192185717,-0.006806701460288866
5.455642779,-0.001924812794,0.01500070095,0.02040863037,0.02540153789,-0.006792334742530032
5.460705487,-0.01617965102,0.01244884729,0.01786136627,0.02712532601,-0.006838163549423461
5.465774498,-0.004184752703,-0.009034007788,0.02484035492,0.02676132815,-0.006889777242663623
5.470841633,-0.00421962142,-0.02321121097,0.008007049561,0.02491341731,-0.006911070291799497
5.475906373,0.01475742459,0.01504996419,0.01269721985,0.02460695826,-0.006884384675185897
5.480973039,-0.004380196333,0.02918490767,0.000714302063,0.02952041977,-0.00685809570039389
5.48604356,0.005197793245,-0.01608422399,-0.03254508972,0.036672908,-0.0068560228792379704
5.49109481,-0.009168297052,-0.02302414179,-0.006136894226,0.02553096643,-0.00686605088291553
5.496187675,0.009844720364,-0.02515256405,0.04855728149,0.05556419336,-0.006864328416610098
5.501236737,-0.004401832819,-0.005883872509,-0.01836395264,0.01977955622,-0.00685058767827323
5.506302675,0.009977042675,-0.02018937469,-0.003965377808,0.0228664919,-0.006836465844539483
5.511368091,0.01235839725,-0.01774692535,0.01031208038,0.0239587634,-0.006779896697157918
5.516435748,0.0193643868,-0.0340706706,0.02448749542,0.04621068603,-0.0066995166028326735
5.52150205,-0.01168930531,-0.04555311799,-0.02322101593,0.05244942324,-0.006680074462481205
5.526564602,-0.01403471828,0.002392172813,-0.001642227173,0.01433152881,-0.0067451890660180066
5.531625956,-0.009288430214,-0.009452670813,-0.02062511444,0.02451577588,-0.006804212421479361
5.536716529,0.004974544048,-0.01412206888,0.003304481506,0.01533292262,-0.006815192497700225
5.541782935,-0.004534572363,-0.01632708311,-0.006223678589,0.01805187427,-0.00681407796010787
5.546849602,0.0002390742302,0.01242250204,0.003335952759,0.01286484723,-0.0068249598894268805
5.551914445,0.007293969393,0.02894845605,-0.01569366455,0.03372693588,-0.00680588304779505
5.55697955,-0.002338737249,0.02158138156,-0.001305580139,0.02174695982,-0.006793333662240681
5.562046216,0.00241664052,0.02145650983,0.00821018219,0.02310041249,-0.006793136307313448
5.567111841,0.007184445858,0.0189050138,-0.03461933136,0.0400938139,-0.0067688185557216686
5.572177987,-0.004770755768,0.01394504309,0.0155544281,0.0214281257,-0.006762704502524319
5.577245956,0.01900672913,0.006755083799,-0.02495670319,0.03208931198,-0.006726630766682586
5.58231257,-0.01199430227,-0.02412611246,-0.03187465668,0.04173639093,-0.006708866136631144
5.587378716,-0.01190713048,-0.002540230751,0.02540493011,0.02817167021,-0.0067694102105914835
5.592452414,-0.009502232075,-0.004893869162,0.00381565094,0.01134907758,-0.006823722530579776
5.597514133,0.007346659899,-0.007277786732,0.01090240479,0.01502671027,-0.006829177980899337
5.602550123,-0.009254872799,0.01648929715,0.0131816864,0.02305008563,-0.006833982851440477
5.607619393,0.0003018975258,0.02585053444,0.003570556641,0.02609770388,-0.006856675375922061
5.612710487,0.009733855724,0.01845902205,-0.03446769714,0.04029274858,-0.006831128894344293
5.61777455,0.01206514239,-0.00312384963,-0.01992988586,0.02350588114,-0.006775933144451206
5.622844602,0.002449691296,-0.0007172822952,0.03249931335,0.03259939953,-0.0067391376636715215
5.62788007,0.007118284702,-0.02198049426,0.02510929108,0.03412167351,-0.006715048045190173
5.632992258,0.00229254365,-0.005060523748,-0.01785469055,0.0186990543,-0.006690993083304596
5.638016737,-0.007241398096,-0.02148714662,0.02743721008,0.03559404182,-0.006703425790923587
5.643082727,-0.00006720423698,-0.01417648792,-0.003672599792,0.01464463436,-0.006721938444090015
5.648150435,0.0140671134,-0.03068426251,0.04149723053,0.05349231522,-0.006686464718257665
5.653214914,0.006860136986,-0.008941680193,0.007897377014,0.0137616746,-0.0066334719082038395
5.658281112,0.006837427616,0.01024207473,-0.02542209625,0.02824771653,-0.00659877462100808
5.66334731,0.02101844549,0.01021170616,-0.02045631409,0.03105663825,-0.006528212936699148
5.668413039,0.02320849895,-0.008922666311,-0.02266311646,0.03364320504,-0.006416192079183599
5.673478925,-0.00307649374,-0.01359438896,0.001279830933,0.01399679221,-0.0063651988575109675
5.678544758,-0.003011524677,-0.001650542021,0.03214836121,0.03233126502,-0.00638061929981169
5.683610748,0.006448417902,0.005492687225,0.0271320343,0.02842356402,-0.006371913666457231
5.688709445,-0.0220746696,0.0196505785,0.03165340424,0.04330559171,-0.006411750427784133
5.693745435,-0.0147767663,0.01231336594,-0.006621360779,0.02034242418,-0.006504542159123163
5.698809706,0.006713449955,0.01453921199,-0.01607036591,0.02268734793,-0.006524959568688059
5.703879758,0.01377135515,0.02149751782,-0.004059791565,0.02585102325,-0.006473030055141944
5.708961998,0.02309119701,-0.0190629065,0.01260566711,0.03248846914,-0.0063793578865971225
5.714033091,-0.01755517721,0.004956364632,0.02200984955,0.02858641766,-0.0063653210509693
5.719073248,-0.01272717118,-0.01166114211,-0.009049415588,0.0194898703,-0.006441634946076446
5.724141216,0.01597678661,-0.004432380199,-0.02323055267,0.02854053753,-0.006433400472570683
5.729399185,0.003952711821,-0.03775590658,0.012591362,0.03999593491,-0.006381006130102804
5.73429455,0.018160671,-0.01843217015,-0.01364421844,0.02925268474,-0.0063268795899560385
5.739359654,0.006114006042,-0.004024624825,0.007850646973,0.01073365421,-0.006265402708063969
5.744425279,0.001296758652,-0.01829352975,-0.00409412384,0.0187908665,-0.00624663263061245
5.749472414,-0.01060205698,-0.001505225897,-0.02306365967,0.02542836437,-0.006270115179050795
5.754594914,-0.003455162048,0.007959723473,-0.02049541473,0.02225662525,-0.006306119231286257
5.75962356,0.006065577269,0.02215367556,-0.003694534302,0.02326426771,-0.006299555804256545
5.764688664,-0.02256116271,0.0006941258907,-0.0107831955,0.02501529889,-0.006341331732156322
5.769758977,-0.01294323802,-0.01831737161,-0.001188278198,0.02246030984,-0.0064313409444455875
5.774827466,0.01808348298,0.01272010803,-0.02018356323,0.02993642814,-0.0064183143069270554
5.77989231,0.4640848339,0.2762866914,-0.3193149567,0.627432156,-0.005197260653557049
5.784957675,1.156148672,0.5855000019,-0.040974617,1.296598983,-0.001093723607250392
5.790029029,2.331509829,0.6189368963,-0.09038639069,2.413957469,0.007749851837589833
5.795062414,3.151395321,1.069741845,0.01981544495,3.328067418,0.02154863810680606
5.800130123,3.440109491,1.142439485,0.2859182358,3.636106506,0.03825055223646237
5.805190279,3.447021723,0.9130185843,0.3098783493,3.57932763,0.055675531404116615
5.810273664,2.392934799,-0.1922808588,0.1197690964,2.403633399,0.07051890509641219
5.815331633,0.5613564253,-1.216662765,0.01889514923,1.340054605,0.07799026181115176
5.820403508,-1.747334242,-1.860913992,-0.382891655,2.581236885,0.07498269619161393
5.825469081,-2.851943254,-2.464575052,-1.155276299,3.942381747,0.06333370823999238
5.830543716,-2.674378633,-1.688223004,-1.340146065,3.434878377,0.04931167500547258
5.835713664,-2.012141228,-1.011121273,-1.806295872,2.886829286,0.03719714301430441
5.84075606,-1.357120275,-0.3093485832,-1.680212975,2.181877088,0.028702567651463243
5.845754081,-0.706589222,-0.05282258987,-1.668608665,1.812819195,0.023545335949510963
5.850800279,-0.4396089315,-0.3038137555,-3.201680183,3.245969009,0.02065336453461298
5.855863352,-2.331962585,-0.674346447,6.625798225,7.056486006,0.013637030078233376
5.860929341,-2.523233175,-1.127931356,5.991344452,6.598116636,0.001338845921729533
5.865996737,-1.302486062,-0.898537159,-1.814433098,2.407489654,-0.008354371257617729
5.87106231,-1.172840118,-0.5834689736,0.3801937103,1.364015119,-0.014623843989418836
5.876128352,-1.130811214,-0.5164580941,0.130490303,1.249996274,-0.02045904119005299
5.881195018,-1.207526684,-0.7591084242,0.1862249374,1.438417888,-0.026382829752206308
5.886266477,-1.01703012,-0.8997420073,0.4327201843,1.42517813,-0.03202370406453563
5.891315904,-0.276181221,-0.6925854683,0.262219429,0.7903858088,-0.03528869219551107
5.896412518,0.53121984,0.09650969505,-0.3711690903,0.6551909136,-0.034638775497443104
5.9014758,2.140229702,2.190173388,-0.2389125824,3.07156668,-0.027875624307484605
5.906542466,2.866075516,3.329955101,-0.107506752,4.394831912,-0.015192986090652323
5.911610956,1.78232348,2.128398418,-0.1703271866,2.781324894,-0.003412804177035893
5.916679445,0.5476818085,0.4708836675,-0.04987239838,0.7239986518,0.0024919989103162855
5.921745331,-0.3231608868,-0.1810734868,-0.3335943222,0.4985034986,0.003060697607289516
5.926811477,-1.150162578,-0.3487542868,0.1204986572,1.207900424,-0.0006713382816617279
5.931844289,-1.220006227,-0.5070878863,0.1235179901,1.326955166,-0.006635645283576094
5.93694507,-0.190316081,-0.4943366051,0.1270971298,0.5447408285,-0.010232517899837602
5.942012779,1.161170006,-0.2810857296,0.1770124435,1.207749301,-0.007772515313133561
5.947040643,2.712690353,-0.03946530819,0.0650396347,2.713756919,0.0019661062068890896
5.952112779,3.951604843,0.1403497458,-0.1390342712,3.956540081,0.01886721199601806
5.95721382,4.630124092,0.04734104872,-0.1865930557,4.634124216,0.040755087570177186
5.962249237,4.831654549,-0.4302986264,1.207756042,4.998871597,0.06457708807974231
5.967314862,4.341366768,-1.16684556,3.119008064,5.471490225,0.08781063113420773
5.97240705,3.266526699,-1.592341423,3.633395195,5.138804192,0.10718104304317519
5.977473716,1.653164864,-1.887419343,2.832005501,3.783591019,0.11964426002954534
5.982538039,-0.3534606695,-2.083649635,1.503177643,2.593467423,0.12293532095224442
5.987605487,-2.080184698,-1.938809872,0.95125103,2.99850473,0.11676913527712068
5.99266106,-2.70847559,-1.778512478,1.298542976,3.490724927,0.10466442444802836
5.997730175,-2.626813889,-1.974324465,1.989296913,3.841277197,0.09114182648435674
6.002779966,-1.92942524,-2.301864147,2.853224754,4.142722753,0.07963779881062016
6.007843925,-0.8938778639,-2.406653643,3.703059196,4.505956813,0.07248925322925882
6.012910643,0.001628994942,-2.340669155,4.380157471,4.966338109,0.07022886652684468
6.01799132,0.7306312323,-2.104499102,4.955657005,5.433348399,0.07208905537412645
6.02304955,1.163255692,-1.783366203,5.287510872,5.700116669,0.07687891320267697
6.028111998,1.508606791,-1.426113367,5.408708572,5.793429227,0.0836419956443466
6.033180227,1.540773273,-1.194610715,5.424239159,5.763978443,0.09136947388053981
6.038247362,1.087150693,-1.183398247,5.09726429,5.344570262,0.09802749663326851
6.043313612,0.5167323351,-1.228824973,4.983502388,5.158712938,0.10209033282882472
6.048380591,-0.09405565262,-1.383526087,5.013554573,5.201799723,0.10316117976578228
6.053442466,-0.7416235805,-1.547285795,4.601502419,4.911000242,0.10104612785670763
6.058509393,-0.7637720108,-1.503301144,3.739341736,4.101943275,0.09723226307308842
6.063605904,-0.3531866074,-1.496941566,2.828360558,3.2195028,0.09438596713098758
6.068665643,0.3367922306,-1.334858179,2.304944038,2.684779765,0.09434449149714991
6.07372606,1.095713139,-1.161157131,1.891167641,2.474952163,0.09796902875960757
6.078789341,1.730982661,-0.9635055065,1.278306007,2.357691685,0.10512520632806743
6.083855487,2.490333557,-0.6717557311,0.9954538345,2.764768584,0.1158181084643451
6.088923716,2.79966712,-0.6347552538,0.7622041702,2.97018609,0.1292235758849404
6.09400106,2.833260059,-0.6645037532,0.8200025558,3.023463576,0.14352373039230681
6.099061737,2.689578056,-0.7028868794,0.9289836884,2.931022139,0.15749838030395968
6.104094289,2.381061554,-0.7349876165,1.024220467,2.694195332,0.17025750905925055
6.109188456,1.912264943,-0.5797001123,1.048057556,2.256376315,0.18119297013987248
6.114222675,1.380138397,-0.3964674473,0.9574813843,1.725902382,0.18948030986481768
6.1193233,0.9571088552,-0.4017089903,1.032510757,1.464071698,0.19544102074769382
6.124391268,0.3972616196,-0.52764678,1.335119247,1.489554069,0.19887297386090977
6.129462154,-0.1985245347,-0.6719568372,1.374254227,1.542566907,0.19937686041165956
6.134520956,-0.5437013507,-0.6426481009,1.135734558,1.41368339,0.19749947351490268
6.139587102,-0.6170254946,-0.6548063159,0.6151571274,1.08991287,0.19455926768269816
6.144652727,-0.5609248877,-0.6978166103,0.1431798935,0.9066891602,0.19157574023002877
6.149709237,-0.3305801153,-0.6781873703,-0.3160867691,0.8180049923,0.18932178824866933
6.15477455,-0.1331089735,-0.7105789185,-0.7816734314,1.064731774,0.18814742306394086
6.15985455,-0.05512577295,-0.6839517355,-1.038202286,1.24446487,0.18766930680795782
6.164917831,-0.0709554553,-0.7121859193,-1.411515236,1.582598724,0.1873501144642304
6.169983664,-0.1991624832,-0.8231865764,-1.937446117,2.114473762,0.1866659282808578
6.175041008,-0.2133920789,-0.8556464911,-2.388462067,2.546059336,0.1856227131112033
6.180094498,-0.3157683611,-0.8567441702,-2.855540276,2.997971063,0.18428565961523552
6.185161945,-0.3831617832,-0.7691640854,-3.257240295,3.368685305,0.1825147638837642
6.190247987,-0.404786706,-0.6551116705,-3.610347271,3.691562135,0.1805109943288102
6.195297258,-0.4853494763,-0.5115858912,-3.914832115,3.977837946,0.17826372492314121
6.200360018,-0.5296433568,-0.4345252216,-3.895619392,3.955399437,0.1756943923652888
6.205425175,-0.4377017319,-0.3738591075,-3.950262547,3.991982919,0.17324451499156626
6.210503977,-0.3618778586,-0.2751446068,-3.896709919,3.923137562,0.17121406177987103
6.215557258,-0.2578001618,-0.1462108344,-3.687127113,3.699019449,0.16964835819656873
6.220629914,-0.2262129188,-0.04790434241,-3.218755722,3.22705059,0.16842074226787662
6.225702414,-0.2685207725,0.01902708411,-2.503901958,2.518330886,0.16716597394331703
6.230755852,-0.2605464458,0.07271382213,-1.78703022,1.807387274,0.16582916975056128
6.235821945,-0.2432798147,0.1500074267,-1.245316505,1.277693428,0.16455295440479367
6.240894133,-0.2844865322,0.2288400233,-0.9241333008,0.9936411328,0.1632144893390185
6.245958664,-0.2824939489,0.3758868873,-0.5122833252,0.6953617681,0.16177874422755573
6.251010383,-0.312140584,0.3942792416,-0.1631813049,0.52869273,0.16027678094360223
6.256103091,-0.4869798422,0.3749852777,-0.001323699951,0.6146259654,0.15824193744986603
6.261168456,-0.6049018502,0.3206005991,0.1025695801,0.6922510464,0.1554765477954541
6.266236164,-0.6585488319,0.2860584557,0.1006689072,0.7250174019,0.1522751482308121
6.271303091,-0.7367181778,0.2807011306,0.002688407898,0.7883869772,0.14874029018898322
6.276369758,-0.7920606136,0.1824416816,-0.1648788452,0.8293551811,0.14486738366263982
6.28143382,-0.7817070484,0.08013123274,-0.3732299805,0.8699353668,0.14088255515565848
6.286503612,-0.6103292108,0.0004729926586,-0.7634544373,0.9774275661,0.13735388801035772
6.291567675,-0.4539664388,-0.02751237154,-1.342362404,1.417314108,0.13465905790025764
6.296632518,-0.3649412394,-0.02228298783,-1.858268261,1.893895343,0.1325852384894687
6.30170007,-0.2893997431,-0.005111813545,-2.299137115,2.31728501,0.13092728501219383
6.306764914,-0.2832799554,0.02711063623,-2.586025715,2.601636315,0.12947701834475892
6.311842779,-0.2868671417,0.03186613321,-2.807654858,2.822451772,0.12802945335015117
6.316903195,-0.3291582465,0.0889236927,-2.956932545,2.976525264,0.12647078098472442
6.321940695,-0.3771092296,0.1433833241,-2.954937458,2.982352348,0.12469186977929746
6.327007883,-0.2973176241,0.1039040685,-2.509854317,2.529538004,0.12298314594932427
6.332065956,-0.3105608225,0.01048886776,-2.103329659,2.126159376,0.12144579917030962
6.337164654,-0.3798968792,0.05915701389,-1.969887733,2.007057267,0.11968558151893832
6.342230018,-0.3829884529,0.120552063,-1.781446934,1.826134204,0.11775343557026463
6.347297987,-0.336963892,0.07724303007,-1.456668854,1.497129019,0.11592908748754947
6.352357362,-0.4166791439,0.02698260546,-1.218166351,1.287741756,0.11402260612017116
6.357414393,-0.41116786,-0.01906841993,-0.4030847549,0.5761075711,0.11192938213918155
6.362474185,-0.4660228491,0.0165271163,-0.1178188324,0.4809695611,0.10971018087299232
6.367541373,-0.4680732489,-0.03130543232,-0.2685203552,0.5405328645,0.10734356060367614
6.372608091,-0.7609643936,-0.3165936768,-0.1993589401,0.8479636499,0.1042299670307099
6.377676112,-0.9318748116,-0.4122619331,-0.5017995834,1.135849192,0.09994029470992179
6.382743873,-0.8913403153,-0.3779343665,-0.3665533066,1.035221363,0.0953204854525646
6.387810227,-0.9951628447,-0.1283977628,-0.3397722244,1.059377288,0.09054163903722506
6.392873456,-0.9402873516,-0.1688181162,-0.7369747162,1.206553601,0.08564182525624403
6.397938143,-1.066617489,-0.4045734406,-0.5959272385,1.287043826,0.08055965282803212
6.403011373,-1.048368454,-0.4068436325,-0.8887195587,1.433325019,0.07519474776022937
6.408069706,-0.9137165546,-0.283572346,-0.6886329651,1.178773336,0.07023230808632601
6.413138039,-0.8780078888,0.03111249208,-0.7809705734,1.175491759,0.0656917800246309
6.418204706,-0.6240646243,-0.03762388229,-1.0885849,1.255344294,0.06188652940776521
6.423291789,-0.7666193247,-0.3206261694,-1.135260582,1.406884117,0.058349267070099645
6.428372518,-0.7033193111,-0.268938601,-1.34469223,1.541162944,0.054615087142535296
6.433421373,-0.5172833204,-0.153952539,-1.367074966,1.469754191,0.05153376429300428
6.438484393,-0.3824605942,0.1119837761,-1.415259361,1.47029777,0.04925605357575497
6.44355106,-0.2667093277,0.3460512161,-1.060656548,1.147117091,0.04761148966541349
6.448615123,-0.03052568436,0.1744265556,-0.7105541229,0.7322865575,0.04685888125197471
6.45368257,-0.310721755,-0.08126914501,-0.5088834763,0.6017599815,0.045994254595553445
6.458747414,-0.3480272293,0.07466965914,-0.1851654053,0.4012290339,0.044326024175234305
6.463813039,-0.1342762709,0.1864151955,0.01387214661,0.2301590287,0.043104439841134136
6.468879966,0.1125526428,0.41837883,-0.05750179291,0.4370530848,0.04304940382225526
6.473945852,0.1601961851,0.6628090739,-0.02329730988,0.682291324,0.04374026105664272
6.479022518,0.2630773783,0.7188001275,-0.09189319611,0.7709265138,0.04481467031064851
6.484084498,0.1704330444,0.3122560978,-0.311170578,0.4726292647,0.045911880855397935
6.489141164,-0.2598587275,0.0981297493,-0.2338628769,0.3631085941,0.045685782949768515
6.49418606,-0.5484424829,0.124361217,-0.4298734665,0.7078460755,0.04364688517819772
6.499276164,-0.599090457,0.1920326352,-0.4081029892,0.7498892974,0.04072635417443897
6.504344914,-0.6592899561,0.2313187122,-0.08252811432,0.7035499147,0.037537146314988966
6.509400435,-0.5774260759,0.1121462584,0.08226108551,0.5939398476,0.03441102437958259
6.514478248,-0.7623746991,-0.220271349,0.02178764343,0.7938572607,0.031009395483230215
6.519544393,-0.7769320011,-0.1260815263,-0.1774454117,0.8068498991,0.027110220011887322
6.524610539,-0.6030430794,-0.02256816626,0.2146511078,0.6405040014,0.023614642394800028
6.529636633,-0.5331798792,0.08993244171,0.1299495697,0.5561074701,0.02075926069735931
6.534743352,-0.4525450468,0.2091178298,0.1049880981,0.5094602898,0.018242350593170614
6.539783716,-0.3175669909,0.3090910912,0.1658735275,0.473180857,0.016301528097775724
6.544856164,-0.2357412577,0.3775178194,0.04932308197,0.4478017541,0.014898214438278452
6.549923716,-0.1664736271,0.4578237534,0.04265213013,0.4890145825,0.013879092016329295
6.554978873,0.04767668247,0.4230659008,-0.1628065109,0.4558111259,0.013578823413216864
6.560051945,0.1180773973,0.2401696444,-0.2125043869,0.3417335867,0.013999264603700346
6.565119133,0.1467399597,0.3039491177,0.003617286682,0.337536319,0.014670204270491396
6.570203716,0.110019207,0.3236141205,0.01397705078,0.3420901677,0.015322960917539936
6.575249498,0.2229844332,0.2777702808,-0.2672481537,0.4453088389,0.016163092804367726
6.580314966,0.2642058134,0.3031039238,-0.4615020752,0.6120954712,0.017397016106400084
6.58538106,0.197006464,0.3638887405,-0.4347848892,0.6002203447,0.018565288482031123
6.590460956,0.1324757338,0.3550018072,-0.4100542068,0.558319403,0.01940215613136895
6.59551257,0.1478453875,0.3417727947,-0.5286579132,0.6466421661,0.020110193181796354
6.600583873,0.1144932508,0.2602274418,-0.5370054245,0.6076198251,0.020775392543509623
6.605655175,0.1240547895,0.259074688,-0.6291866302,0.6916538877,0.021380267120444378
6.610703925,0.204782486,0.3098752499,-0.4988336563,0.6219272897,0.022210375717784735
6.615799498,0.2588073015,0.3091461658,-0.194067955,0.4474538438,0.023391503519915147
6.620870331,0.2611376047,0.3262197971,-0.07420730591,0.4244042046,0.024709780414185464
6.625931008,0.2145498991,0.3846766949,0.07389259338,0.4466183316,0.025913430819019583
6.630995331,0.1506633759,0.4629656076,0.06827259064,0.4916276572,0.026838209813263503
6.636061998,0.1886788607,0.5156406164,0.06231689453,0.5526014415,0.02769787686920712
6.641128664,0.2492465973,0.5764050484,0.1684989929,0.6501988593,0.028807287883498692
6.646195852,0.2489974499,0.6351850033,0.3125009537,0.7504109304,0.030069636012020316
6.651262518,0.2862092257,0.7326996326,0.3459119797,0.8593134296,0.031425492745138166
6.656331268,0.365460515,0.8255873919,0.512969017,1.038408947,0.03307706824422457
6.661399393,0.4295412302,0.7840887308,0.6269187927,1.091937718,0.03509165235417053
6.666461893,0.5069255829,0.7731440067,0.5778636932,1.090253021,0.037462083974829995
6.671536112,0.6307183504,0.792678833,0.2966995239,1.055545346,0.040348411205622756
6.676596789,0.7282518148,0.7807605267,0.2336206436,1.092939299,0.04378706573497991
6.681637675,0.7876750231,0.9073762894,0.09644317627,1.205431441,0.04760787292207691
6.686702258,0.8402267694,0.9599026442,-0.1196050644,1.281288212,0.05173019479405962
6.691758768,0.8663600683,0.9460697174,-0.2612943649,1.309160962,0.05604488149940823
6.696859289,0.8922492266,1.016740918,-0.3071632385,1.387162583,0.06052979331912467
