time,ax,ay,az,am,gx,gy,gz,gm,velx,distx,button
1649427306.3769212,0.223388671875,-0.09521484375,0.9744873046875,1.0042877437216495,-1.64794921875,-2.74658203125,3.5400390625,4.56092326471421,0,0,0
1649427306.3931072,0.21807861328125,-0.10308837890625,0.9796142578125,1.0088754083362954,3.2958984375,0.8544921875,7.26318359375,4.004669116778381,0,0,0
1649427306.4092646,0.21990966796875,-0.10784912109375,0.9847412109375,1.008789780755909,4.39453125,1.77001953125,6.7138671875,4.407228564095629,0,0,0
1649427306.4254227,0.2197265625,-0.09869384765625,0.96917724609375,0.9986614902854354,3.662109375,-0.1220703125,6.9580078125,9.430474818119249,0,0,0
1649427306.4415808,0.22869873046875,-0.0966796875,0.9635009765625,0.9949794988491003,-1.89208984375,-10.80322265625,-6.103515625,8.09676840920702,0,0,0
1649427306.4577048,0.24444580078125,-0.09979248046875,0.9678955078125,1.0032616820756735,3.47900390625,-4.5166015625,-3.173828125,11.711436214605396,0,0,0
1649427306.4738228,0.20892333984375,-0.10638427734375,0.9583740234375,0.9866343523297781,2.13623046875,-0.3662109375,7.26318359375,5.4444591012203825,0,0,0
1649427306.4922163,0.23272705078125,-0.08404541015625,0.95196533203125,0.9835972267768138,-0.8544921875,-7.2021484375,-2.62451171875,15.851994568269633,0,0,0
1649427306.5090191,0.2369384765625,-0.08038330078125,0.95819091796875,0.9903187123335816,-2.86865234375,-5.18798828125,-3.35693359375,8.586238699603062,0,0,0
1649427306.5251138,0.228515625,-0.09429931640625,0.971923828125,1.0028697221578589,-5.55419921875,-4.21142578125,-0.6103515625,7.732699048884043,0,0,0
1649427306.5411897,0.2120361328125,-0.0860595703125,0.955078125,0.9821098696754696,-4.82177734375,-5.92041015625,-1.15966796875,11.942476253969039,0,0,0
1649427306.5572577,0.21954345703125,-0.085693359375,0.95452880859375,0.9831927215971491,-4.5166015625,-2.3193359375,-1.40380859375,7.2279645229919245,0,0,0
1649427306.5733314,0.22650146484375,-0.10308837890625,0.94061279296875,0.972976132152457,4.57763671875,-2.99072265625,6.77490234375,4.172769686312796,0,0,0
1649427306.5904803,0.22650146484375,-0.10382080078125,0.93475341796875,0.9673911435688696,-3.173828125,0.3662109375,0.30517578125,8.233640315887616,0,0,0
1649427306.6071415,0.2281494140625,-0.1014404296875,0.9422607421875,0.9747808072484732,-10.92529296875,-0.67138671875,-3.60107421875,2.921410630804277,0,0,0
1649427306.6233041,0.22613525390625,-0.1025390625,0.955810546875,0.9875349178206863,1.46484375,7.4462890625,10.80322265625,6.6107019666036,0,0,0
1649427306.639687,0.21734619140625,-0.1087646484375,0.99407958984375,1.0233588552470017,3.11279296875,4.39453125,-2.685546875,3.5410912364160856,0,0,0
1649427306.6560931,0.20819091796875,-0.1025390625,0.9990234375,1.0256244665263041,-3.90625,-0.18310546875,-3.23486328125,12.70733777300069,0,0,0
1649427306.672268,0.2098388671875,-0.0985107421875,0.996826171875,1.0234251967993715,3.5400390625,1.15966796875,-1.953125,7.697450369897603,0,0,0
1649427306.6883342,0.202880859375,-0.08367919921875,0.99041748046875,1.0144405537539873,1.28173828125,3.23486328125,3.5400390625,8.505813475878062,0,0,0
1649427306.7044125,0.20819091796875,-0.0845947265625,0.983642578125,1.0089858510342211,-0.67138671875,-4.150390625,-2.3193359375,4.279865932191946,0,0,0
1649427306.7207706,0.21148681640625,-0.08056640625,0.98675537109375,1.01237531662524,-2.13623046875,-2.13623046875,0.79345703125,3.232559247281582,0,0,0
1649427306.7368724,0.21002197265625,-0.06939697265625,0.98583984375,1.0103491309133192,-6.89697265625,1.03759765625,-1.77001953125,6.365823424088097,0,0,0
1649427306.7529602,0.2109375,-0.062255859375,0.9796142578125,1.0039992604789632,2.50244140625,-1.0986328125,-5.2490234375,5.888864694351701,0,0,0
1649427306.7690427,0.2127685546875,-0.0714111328125,0.983642578125,1.008921567444055,-2.9296875,-3.0517578125,2.62451171875,5.438297498251556,0,0,0
1649427306.7851067,0.21368408203125,-0.07525634765625,0.977783203125,1.0036854074307753,-2.62451171875,-3.5400390625,5.615234375,12.355662524970858,0,0,0
1649427306.8013253,0.2197265625,-0.09466552734375,0.96405029296875,0.9932946650961483,4.57763671875,1.220703125,-1.0986328125,5.420114324778644,0,0,0
1649427306.8173914,0.22613525390625,-0.09521484375,0.960205078125,0.9910584299558822,7.6904296875,4.150390625,9.82666015625,7.038388337463807,0,0,0
1649427306.8335123,0.2347412109375,-0.109130859375,0.95928955078125,0.9936042586555386,0.3662109375,0.54931640625,-7.8125,7.004166470069436,0,0,0
1649427306.849562,0.23052978515625,-0.106201171875,0.9642333984375,0.9970800957867632,4.21142578125,-1.89208984375,0.8544921875,4.40215403326586,0,0,0
1649427306.8656325,0.2281494140625,-0.09466552734375,0.95965576171875,0.9909353653010506,-2.62451171875,-5.126953125,-7.38525390625,9.416638730156793,0,0,0
1649427306.8817077,0.23712158203125,-0.10986328125,0.95361328125,0.98877443100457,5.67626953125,3.47900390625,-2.685546875,6.664860202499364,0,0,0
1649427306.8977654,0.24334716796875,-0.08441162109375,0.954345703125,0.9884932407493925,-1.953125,-5.7373046875,-7.38525390625,14.546740694173803,0,0,0
1649427306.9145598,0.249755859375,-0.14556884765625,0.94061279296875,0.9837484409290839,-0.30517578125,0.244140625,-5.4931640625,9.414660486247199,0,0,0
1649427306.9306664,0.2523193359375,-0.0589599609375,0.955078125,0.9896037333878688,-3.662109375,-6.34765625,-3.23486328125,9.171738124781392,0,0,0
1649427306.946726,0.252685546875,-0.113525390625,0.93841552734375,0.9784486199468652,-6.8359375,-4.45556640625,-7.26318359375,9.727786190163183,0,0,0
1649427306.9628146,0.2457275390625,-0.078369140625,0.94244384765625,0.9770998677930166,6.28662109375,4.45556640625,1.89208984375,3.7866399827260984,0,0,0
1649427306.9794567,0.24609375,-0.0963134765625,0.942626953125,0.9789708843036848,5.18798828125,4.7607421875,2.44140625,3.481679857654214,0,0,0
1649427306.9968581,0.233642578125,-0.08258056640625,0.9521484375,0.9838673951781131,-4.08935546875,3.23486328125,0.0,9.508564326104686,0,0,0
1649427307.0140252,0.23419189453125,-0.08221435546875,0.9576416015625,0.989283822142295,1.953125,6.65283203125,6.2255859375,6.332084923810291,0,0,0
1649427307.0308728,0.2252197265625,-0.08349609375,0.9744873046875,1.003653839678554,-3.90625,-0.48828125,-2.25830078125,7.268054514943455,0,0,0
1649427307.0478535,0.2208251953125,-0.0684814453125,0.9678955078125,0.9951257153146581,-4.33349609375,2.44140625,-4.94384765625,4.201684272337822,0,0,0
1649427307.0659542,0.22320556640625,-0.0736083984375,0.95489501953125,0.9833938272741267,-3.0517578125,-2.99072265625,2.01416015625,8.285958013449807,0,0,0
1649427307.0836213,0.2259521484375,-0.07928466796875,0.95965576171875,0.989080185302704,-0.54931640625,1.89208984375,-8.544921875,14.14831258127811,0,0,0
1649427307.1009328,0.23016357421875,-0.06976318359375,0.97998046875,1.0090608959888174,0.732421875,1.40380859375,-2.9296875,3.926226083026218,0,0,0
1649427307.1180246,0.24298095703125,-0.06976318359375,0.96221923828125,0.9948731124035398,3.662109375,0.48828125,-0.30517578125,4.84066895969198,0,0,0
1649427307.135155,0.25946044921875,-0.07781982421875,0.9576416015625,0.9952150957423338,1.52587890625,1.89208984375,-1.28173828125,13.979449337045203,0,0,0
1649427307.1525311,0.2596435546875,-0.07177734375,0.957275390625,0.9944561006212456,-0.3662109375,3.2958984375,4.0283203125,5.880951889866164,0,0,0
1649427307.1698785,0.26678466796875,-0.076904296875,0.95709228515625,0.9965510384554556,0.54931640625,2.99072265625,-4.94384765625,7.49540545875299,0,0,0
1649427307.1871445,0.27850341796875,-0.09356689453125,0.9525146484375,0.9967964050198579,-2.197265625,-1.220703125,-6.40869140625,4.1736623528512595,0,0,0
1649427307.2036414,0.28326416015625,-0.101806640625,0.9649658203125,1.0108225417330925,-1.40380859375,-2.5634765625,-4.638671875,3.225059768950905,0,0,0
1649427307.2197375,0.27484130859375,-0.0897216796875,0.9525146484375,0.9954254769712726,-5.67626953125,-1.89208984375,-6.77490234375,7.91694444035208,0,0,0
1649427307.2358541,0.2724609375,-0.08697509765625,0.9407958984375,0.9833089812426794,-4.7607421875,-6.04248046875,-4.150390625,5.148343468879725,0,0,0
1649427307.2520013,0.276123046875,-0.088623046875,0.9488525390625,1.0093731606322025,4.45556640625,1.15966796875,-4.39453125,4.234801943042396,0,0,0
1649427307.2686296,0.276123046875,-0.09283447265625,0.9638671875,1.0069270735599762,2.50244140625,-0.18310546875,5.615234375,5.9062355485365945,0,0,0
1649427307.284735,0.27410888671875,-0.10821533203125,0.95819091796875,1.0024849500828539,-7.2021484375,-6.53076171875,-10.7421875,14.065392514612538,0,0,0
1649427307.3008196,0.26751708984375,-0.10638427734375,0.95947265625,1.0017338897710568,1.89208984375,-0.30517578125,-1.15966796875,11.692972442204299,0,0,0
1649427307.3171937,0.263671875,-0.10198974609375,0.978515625,1.0185369872240397,-1.708984375,-2.38037109375,-3.0517578125,6.710814735790735,0,0,0
1649427307.3333163,0.26275634765625,-0.091552734375,0.990966796875,1.0292900436290486,8.9111328125,0.18310546875,-5.7373046875,9.115309913376207,0,0,0
1649427307.3493822,0.2559814453125,-0.09027099609375,0.9927978515625,1.0292341459294625,-2.0751953125,-7.50732421875,-3.5400390625,6.59320957446008,0,0,0
1649427307.3654952,0.22576904296875,-0.06298828125,0.96661376953125,0.9946262432618933,-5.37109375,-11.65771484375,2.25830078125,7.658878575847857,0,0,0
1649427307.381616,0.23309326171875,-0.07672119140625,0.95379638671875,0.9848584452535417,2.197265625,-7.14111328125,-6.04248046875,11.55967832622642,0,0,0
1649427307.3979847,0.22705078125,-0.06756591796875,0.94940185546875,0.9785096288257467,-1.64794921875,-0.79345703125,-7.568359375,6.269709979685673,0,0,0
1649427307.4141479,0.2113037109375,-0.0633544921875,0.94647216796875,0.9718398091639179,-1.3427734375,-0.244140625,1.3427734375,14.905205048216317,0,0,0
1649427307.4302309,0.2142333984375,-0.05419921875,0.97100830078125,0.9768100481991682,5.43212890625,5.4931640625,4.8828125,3.3757462912658283,0,0,0
1649427307.4463496,0.21240234375,-0.0509033203125,0.95745849609375,0.9820553321434774,9.765625,7.01904296875,2.74658203125,10.966303908562242,0,0,0
1649427307.462458,0.20782470703125,-0.08843994140625,0.9473876953125,0.9739384874406064,-0.91552734375,-2.74658203125,1.0986328125,2.085938414384163,0,0,0
1649427307.4785469,0.21038818359375,-0.1014404296875,0.951416015625,0.9796661591372912,3.0517578125,5.859375,-3.41796875,4.095272509086,0,0,0
1649427307.4946377,0.20269775390625,-0.0966796875,0.95947265625,0.9854040387095879,-10.92529296875,0.244140625,-6.04248046875,4.79893161287922,0,0,0
1649427307.5107892,0.2069091796875,-0.08880615234375,0.9525146484375,0.9787655985071552,5.859375,7.87353515625,1.52587890625,3.2331354097043525,0,0,0
1649427307.526865,0.21661376953125,-0.0933837890625,0.94976806640625,0.9786222137144006,-2.62451171875,2.99072265625,-3.35693359375,11.164095911252296,0,0,0
1649427307.5429685,0.229248046875,-0.103271484375,0.9609375,0.9932877455134882,2.99072265625,1.8310546875,-4.638671875,7.082182472832171,0,0,0
1649427307.5590951,0.23291015625,-0.0977783203125,0.95233154296875,0.9726379289395294,-5.55419921875,-2.685546875,0.42724609375,7.420730502576146,0,0,0
1649427307.575202,0.25579833984375,-0.11004638671875,0.93328857421875,0.9739458715267181,1.708984375,8.056640625,1.3427734375,5.456761434734533,0,0,0
1649427307.5912745,0.246826171875,-0.10455322265625,0.927978515625,0.9659185581361674,-3.23486328125,2.38037109375,-5.79833984375,9.76142793109998,0,0,0
1649427307.6074796,0.2508544921875,-0.1029052734375,0.94500732421875,0.983135959254353,1.89208984375,6.04248046875,5.615234375,13.022247873400536,0,0,0
1649427307.6235864,0.2486572265625,-0.09906005859375,0.95562744140625,0.9924047149721767,-3.90625,2.25830078125,-3.7841796875,6.350589954574983,0,0,0
1649427307.6396778,0.23968505859375,-0.08551025390625,0.95489501953125,0.9882233700746947,-5.79833984375,9.1552734375,-9.94873046875,6.825575468234506,0,0,0
1649427307.655746,0.233642578125,-0.08221435546875,0.96441650390625,0.9957144407734542,-0.3662109375,2.74658203125,-1.5869140625,3.5479227610677784,0,0,0
1649427307.6718628,0.22943115234375,-0.087890625,0.96807861328125,0.9987690509428191,-3.7841796875,8.1787109375,1.46484375,7.504346303433015,0,0,0
1649427307.6879313,0.23016357421875,-0.08074951171875,0.97393798828125,1.0025850612091594,-1.5869140625,7.4462890625,-5.0048828125,7.126752972373165,0,0,0
1649427307.7040045,0.22650146484375,-0.08514404296875,0.98089599609375,1.0103016266354217,4.0283203125,1.8310546875,-1.64794921875,7.216874923593731,0,0,0
1649427307.7200792,0.22247314453125,-0.0780029296875,0.98565673828125,1.0134584169055423,-2.9296875,-0.3662109375,-6.04248046875,9.868273085605855,0,0,0
1649427307.736153,0.22540283203125,-0.07965087890625,0.99005126953125,1.0185048922311006,-6.34765625,5.37109375,-2.44140625,5.064079226731333,0,0,0
1649427307.7522225,0.22540283203125,-0.08551025390625,0.97686767578125,1.0061753804367708,-1.28173828125,7.99560546875,1.46484375,6.529335507966959,0,0,0
1649427307.768294,0.22979736328125,-0.087158203125,0.97137451171875,1.0019839432644784,1.40380859375,-7.32421875,4.33349609375,4.898047521420625,0,0,0
1649427307.784415,0.233642578125,-0.08843994140625,0.98126220703125,1.012564070316875,1.77001953125,5.31005859375,-3.35693359375,8.026529164065893,0,0,0
1649427307.8006144,0.2171630859375,-0.0823974609375,0.9766845703125,1.0039232527187314,-0.6103515625,0.1220703125,0.06103515625,13.450741564504959,0,0,0
1649427307.8167849,0.2193603515625,-0.088623046875,0.9700927734375,0.9989144945453329,-1.8310546875,6.28662109375,-1.03759765625,5.8469640899346205,0,0,0
1649427307.832933,0.21258544921875,-0.0889892578125,0.96221923828125,0.989432930392003,-7.38525390625,-1.15966796875,-9.46044921875,6.535608507412627,0,0,0
1649427307.8490722,0.2186279296875,-0.07928466796875,0.96331787109375,0.9909922053088773,0.91552734375,-1.8310546875,-0.30517578125,8.96780725502036,0,0,0
1649427307.8651438,0.22100830078125,-0.08258056640625,0.96258544921875,0.9910776790998046,1.46484375,1.46484375,-8.36181640625,8.69531436450592,0,0,0
1649427307.8819354,0.21697998046875,-0.09210205078125,0.95947265625,0.9880034806486067,1.89208984375,6.7138671875,4.08935546875,4.737208962874086,0,0,0
1649427307.8987792,0.21441650390625,-0.09063720703125,0.949951171875,0.9780576513644226,-4.57763671875,-2.74658203125,-7.38525390625,7.1611693352850345,0,0,0
1649427307.9156623,0.21881103515625,-0.09649658203125,0.94830322265625,0.9779922604755585,1.28173828125,6.7138671875,-3.7841796875,6.306441090375728,0,0,0
1649427307.9325135,0.22979736328125,-0.0919189453125,0.95068359375,0.9823722390742687,-0.732421875,0.0,3.41796875,9.24637292940864,0,0,0
1649427307.9493492,0.23126220703125,-0.08349609375,0.94537353515625,0.976823897663391,-5.31005859375,-5.859375,-4.5166015625,9.62905759866554,0,0,0
1649427307.9662056,0.245361328125,-0.0926513671875,0.95086669921875,0.9824847055293058,-3.41796875,2.197265625,-8.36181640625,8.222774405094897,0,0,0
1649427307.983252,0.243896484375,-0.10986328125,0.93511962890625,0.9726274497582638,-1.40380859375,3.5400390625,-4.5166015625,8.280111270562314,0,0,0
1649427307.9999917,0.24554443359375,-0.1072998046875,0.949951171875,0.9870220594807073,-4.57763671875,3.173828125,-4.45556640625,20.079917085578984,0,0,0
1649427308.0169091,0.2523193359375,-0.103271484375,0.97833251953125,1.015610439856405,-3.41796875,2.0751953125,-4.33349609375,15.349947429467555,0,0,0
1649427308.0336022,0.25762939453125,-0.10894775390625,0.96148681640625,1.001348798436779,-1.77001953125,5.43212890625,-2.99072265625,6.141847406296036,0,0,0
1649427308.0502524,0.2669677734375,-0.1138916015625,0.95526123046875,0.9983822451332545,-0.6103515625,1.3427734375,-13.73291015625,10.960527430046412,0,0,0
1649427308.0683308,0.2559814453125,-0.1102294921875,0.96295166015625,1.0024734116623086,-5.0048828125,2.9296875,-9.94873046875,5.738603160909745,0,0,0
1649427308.0855038,0.24554443359375,-0.097412109375,0.976318359375,1.0114241082624311,-5.92041015625,-1.40380859375,-13.24462890625,8.0917057710823,0,0,0
1649427308.1022055,0.2427978515625,-0.110595703125,0.9840087890625,1.0195369062595658,0.54931640625,4.8828125,-8.7890625,16.79354346304136,0,0,0
1649427308.1188152,0.2325439453125,-0.1065673828125,0.96954345703125,1.0027202045701065,-4.69970703125,2.50244140625,-12.20703125,14.881317383967286,0,0,0
1649427308.1355371,0.22064208984375,-0.09136962890625,0.97705078125,1.0058128901730772,1.708984375,6.2255859375,-0.91552734375,12.87147370907841,0,0,0
1649427308.1529005,0.21514892578125,-0.09649658203125,0.9876708984375,1.0154282122478566,1.89208984375,0.42724609375,-11.71875,7.988147314762925,0,0,0
1649427308.169517,0.2017822265625,-0.0816650390625,0.95947265625,0.9838562006985728,-9.521484375,-6.7138671875,-5.7373046875,10.042091832848573,0,0,0
1649427308.1861851,0.2054443359375,-0.06884765625,0.961669921875,0.9857770607896023,-8.30078125,-0.42724609375,-7.75146484375,8.653657352800687,0,0,0
1649427308.2034593,0.2135009765625,-0.0699462890625,0.96478271484375,0.9905962029041059,-0.6103515625,6.04248046875,-6.53076171875,8.989175260497337,0,0,0
1649427308.2217157,0.218994140625,-0.0794677734375,0.968994140625,0.9966058424516577,-5.79833984375,-0.8544921875,-5.79833984375,9.581936375070143,0,0,0
1649427308.238856,0.2171630859375,-0.06573486328125,0.95361328125,0.9802342415570343,-1.28173828125,10.07080078125,-0.67138671875,17.690300642233066,0,0,0
1649427308.2555714,0.2178955078125,-0.0926513671875,0.97100830078125,0.9994597782565693,-3.90625,7.26318359375,-6.77490234375,12.753573029212014,0,0,0
1649427308.272247,0.2186279296875,-0.10107421875,0.971923828125,1.0013241717907941,-7.4462890625,-2.13623046875,-5.859375,27.465142135724566,0,0,0
1649427308.2888274,0.2109375,-0.09649658203125,0.9613037109375,0.9888938486572623,-11.5966796875,0.8544921875,-13.85498046875,9.592039396885959,0,0,0
1649427308.3053496,0.195556640625,-0.07525634765625,0.97174072265625,0.9940754245144504,-6.53076171875,2.9296875,-7.4462890625,16.64380701293807,0,0,0
1649427308.3218613,0.19573974609375,-0.088623046875,0.974853515625,0.9982522073928394,-10.1318359375,-2.50244140625,-8.11767578125,14.257817725611735,0,0,0
1649427308.3383286,0.1900634765625,-0.09100341796875,0.98455810546875,1.0068566979710833,-10.92529296875,1.220703125,-21.66748046875,20.54964068694991,0,0,0
1649427308.3547878,0.16094970703125,-0.10382080078125,1.015869140625,1.0337667424242671,-9.8876953125,3.84521484375,-8.60595703125,12.802987870908208,0,0,0
1649427308.371282,0.1439208984375,-0.1182861328125,1.0396728515625,1.0562312590048137,-4.0283203125,-1.0986328125,-11.65771484375,9.913469794361799,0,0,0
1649427308.3881292,0.10784912109375,-0.17303466796875,1.068603515625,1.087881382709466,8.11767578125,-0.42724609375,-1.77001953125,19.20271165494483,0,0,0
1649427308.4051442,0.0582275390625,-0.21240234375,1.03070068359375,1.0539682637994332,-3.84521484375,-2.3193359375,-8.72802734375,14.821995303304966,0,0,1
1649427308.422025,0.04266357421875,-0.249755859375,0.99847412109375,1.0009336304180416,-5.79833984375,-12.26806640625,-8.30078125,20.16369157381244,0.0008547701145289466,7.241786961504487e-06,1
1649427308.4389777,-0.02783203125,-0.2841796875,0.93072509765625,0.9735409206388475,-22.0947265625,-6.65283203125,-29.052734375,31.136186290089086,0.0009802726781344973,2.276983137535979e-05,1
1649427308.45588,-0.06610107421875,-0.30560302734375,0.90692138671875,0.9593065016054034,-51.8798828125,-10.68115234375,-34.0576171875,65.97123995824904,0.000185359240276739,3.263404773355596e-05,1
1649427308.472825,-0.10089111328125,-0.226318359375,0.94940185546875,0.9812048204614707,-60.05859375,-1.28173828125,-38.75732421875,69.49208367325487,-0.0012268646678421646,2.3826343598497106e-05,1
1649427308.4898493,-0.1512451171875,-0.18218994140625,1.01715087890625,1.0443486825205603,-41.259765625,6.53076171875,-24.5361328125,46.618514898576514,-0.0033814392299973406,-1.5552901242700534e-05,1
1649427308.5068653,-0.22430419921875,-0.14044189453125,1.13653564453125,1.166940260174768,-3.2958984375,5.43212890625,2.8076171875,21.819193362318387,-0.006536845576192718,-9.888741272659485e-05,1
1649427308.5239708,-0.22760009765625,-0.180908203125,1.1217041015625,1.1587707598456158,15.7470703125,12.63427734375,7.87353515625,32.51140596073619,-0.010424460015201475,-0.00024480108731991974,1
1649427308.5406554,-0.194091796875,-0.25396728515625,1.11346435546875,1.1313923484065156,24.0478515625,23.37646484375,15.13671875,36.13724552488504,-0.013994304761581589,-0.0004515188361834347,1
1649427308.5579858,-0.13751220703125,-0.32757568359375,1.0477294921875,1.106323878601558,14.95361328125,20.1416015625,10.3759765625,38.77049019730192,-0.016756324796006083,-0.0007076492022487233,1
1649427308.5746367,-0.12066650390625,-0.343505859375,1.02191162109375,1.0848318035144298,-6.591796875,14.34326171875,19.59228515625,11.62763779974584,-0.0189931266795611,-0.0010173743538936441,1
1649427308.591385,-0.18402099609375,-0.268798828125,1.09075927734375,1.1383638865126426,-20.56884765625,-1.03759765625,7.62939453125,19.043946852384913,-0.021534947198233567,-0.0013554751613270048,1
1649427308.6081665,-0.20086669921875,-0.2384033203125,1.09130859375,1.1349616825178122,-11.962890625,3.7841796875,19.8974609375,25.266859209611187,-0.024752160388743505,-0.0017423815106153784,1
1649427308.6248188,-0.24884033203125,-0.19537353515625,1.0279541015625,1.075537988173379,-4.69970703125,2.62451171875,38.14697265625,34.706685113334686,-0.028526520036393777,-0.0021895457475581215,1
1649427308.641504,-0.27410888671875,-0.1351318359375,0.96221923828125,1.009585141224147,-2.9296875,0.30517578125,50.1708984375,50.008543595898246,-0.03288517412147485,-0.0027013972276172327,1
1649427308.658185,-0.27813720703125,-0.13458251953125,0.9342041015625,0.9839766581960782,14.0380859375,12.3291015625,65.7958984375,78.82694564859602,-0.03749222381156869,-0.003288512597026832,1
1649427308.6748416,-0.2442626953125,-0.2076416015625,0.94097900390625,0.9940929457616957,23.13232421875,23.49853515625,77.880859375,80.52910605978822,-0.04184380848164437,-0.003949380756386865,1
1649427308.6915975,-0.20709228515625,-0.26715087890625,0.94610595703125,1.004675713154069,23.0712890625,17.822265625,77.69775390625,87.47549565380056,-0.045611391666170675,-0.004679393176176931,1
1649427308.708281,-0.15325927734375,-0.3548583984375,0.92962646484375,1.0067861010023151,17.76123046875,13.3056640625,72.32666015625,77.27014622897478,-0.04862222262454452,-0.005466739514451641,1
1649427308.7249303,-0.09228515625,-0.36895751953125,0.97064208984375,1.0424932939155926,-1.708984375,-7.2021484375,67.32177734375,68.47880693272903,-0.05067000492999796,-0.006294813128987955,1
1649427308.7415822,-0.04888916015625,-0.37152099609375,1.0184326171875,1.085183392920596,-3.90625,-17.63916015625,68.78662109375,67.90349721968504,-0.051845598150976,-0.0071484857451858215,1
1649427308.7582376,-0.01007080078125,-0.3907470703125,1.0089111328125,1.0819826097951757,-13.36669921875,-25.45166015625,66.22314453125,76.77817523499264,-0.05233615754696075,-0.008015300077067522,1
1649427308.7749243,0.02435302734375,-0.36968994140625,1.00689697265625,1.072895724785071,-11.3525390625,-21.728515625,63.1103515625,60.962175606260885,-0.05221705509029562,-0.00888714934898352,1
1649427308.7918744,0.11224365234375,-0.38836669921875,1.0111083984375,1.0889295312114453,-5.18798828125,-15.80810546875,67.56591796875,74.74177929956265,-0.05106964798324043,-0.009754753872329186,1
1649427308.8088758,0.14337158203125,-0.39166259765625,1.03656005859375,1.0882741176839787,-4.33349609375,-27.099609375,88.37890625,80.678341873988,-0.04890810672804946,-0.01060018877740522,1
1649427308.825791,0.18182373046875,-0.31658935546875,1.00616455078125,1.0703531156616146,-3.23486328125,-22.88818359375,83.740234375,91.68293151187224,-0.04614406938344473,-0.011408096377420567,1
1649427308.84269,0.19024658203125,-0.38836669921875,1.00140380859375,1.0907942257377,1.28173828125,-17.88330078125,83.3740234375,92.33207115640177,-0.04299868862290168,-0.012161684896996169,1
1649427308.859557,0.2376708984375,-0.365478515625,1.04461669921875,1.1319390662196522,14.22119140625,-20.69091796875,95.03173828125,100.50005162650532,-0.039383639727020636,-0.012857651195954702,1
1649427308.876422,0.289306640625,-0.3636474609375,1.05560302734375,1.153358382937976,26.2451171875,-31.06689453125,106.01806640625,109.17906581858621,-0.03493958356557414,-0.013484426634998312,1
1649427308.8934364,0.3482666015625,-0.41217041015625,0.93365478515625,1.0783716106321735,15.19775390625,-32.28759765625,99.91455078125,98.09080712654769,-0.02950403478462249,-0.014033832425557682,1
1649427308.9101486,0.38983154296875,-0.43963623046875,0.7774658203125,0.9745264228271888,9.09423828125,-17.822265625,98.14453125,99.87101133448122,-0.023318907398788724,-0.014476479014930186,1
1649427308.927434,0.369140625,-0.384521484375,0.79156494140625,0.9502582686014831,16.357421875,-25.69580078125,107.7880859375,107.1056566768564,-0.016787316009867936,-0.0148216266692364,1
1649427308.9443145,0.30267333984375,-0.29937744140625,0.89007568359375,0.9866472143577988,17.9443359375,-20.6298828125,111.87744140625,123.30639431662831,-0.011133772153698374,-0.015056592157757336,1
1649427308.9609754,0.33782958984375,-0.28546142578125,0.8719482421875,0.9777069062029436,12.14599609375,-30.2734375,115.05126953125,122.12006127377656,-0.005737231265811715,-0.015198738361237595,1
1649427308.9780552,0.4105224609375,-0.39678955078125,0.75823974609375,0.949156547203717,11.53564453125,-32.470703125,113.28125,114.54778538889681,0.0004984054030501284,-0.015242389972245298,1
1649427308.9952102,0.45465087890625,-0.44183349609375,0.75860595703125,0.9886390939083636,14.5263671875,-33.87451171875,99.365234375,105.27745311771436,0.007977672554261517,-0.01516911581027369,1
1649427309.0125477,0.4786376953125,-0.39898681640625,0.6690673828125,0.9142951852567226,-3.0517578125,-34.36279296875,100.03662109375,105.61962286111445,0.016067144875705708,-0.014960702367264682,1
1649427309.0292227,0.45465087890625,-0.30413818359375,0.66302490234375,0.8595402710390424,-4.638671875,-33.38623046875,101.13525390625,105.61112225234704,0.023977493961865548,-0.014621292798793808,1
1649427309.0460255,0.43359375,-0.293701171875,0.6632080078125,0.8450495725260359,10.07080078125,-22.216796875,104.1259765625,105.04015623000592,0.03140102054021554,-0.014158465486477879,1
1649427309.0632164,0.46728515625,-0.29498291015625,0.74285888671875,0.9258561767968381,15.380859375,-23.3154296875,109.80224609375,122.28463241496632,0.03895881237258436,-0.013568191958231203,1
1649427309.080214,0.52459716796875,-0.36346435546875,0.76959228515625,0.999790383885125,14.70947265625,-20.44677734375,105.712890625,106.73059503884089,0.04749881100724451,-0.012823801250189042,1
1649427309.0969143,0.59747314453125,-0.41107177734375,0.65020751953125,0.974024631628785,5.18798828125,-24.59716796875,91.61376953125,90.16537112767239,0.057014984398847446,-0.01193742952479961,1
1649427309.1136189,0.61688232421875,-0.421875,0.609375,0.9642925946949541,-19.53125,-23.25439453125,83.740234375,84.4689958253389,0.06713851224048994,-0.010902418432734973,1
1649427309.1302912,0.5804443359375,-0.24755859375,0.6654052734375,0.9170414725517254,-33.38623046875,-16.90673828125,74.3408203125,90.67306066300227,0.07713149726623669,-0.009698329279256238,1
1649427309.1469648,0.66925048828125,-0.315673828125,0.81005859375,1.0971513601759837,-20.08056640625,-8.23974609375,89.84375,83.11538457828898,0.08755663503688993,-0.008324476691265417,1
1649427309.1636155,0.62969970703125,-0.2728271484375,0.90673828125,1.1371590410509798,5.4931640625,-18.37158203125,78.18603515625,80.99682592572024,0.09838879717426607,-0.006773846745880056,1
1649427309.180334,0.7547607421875,-0.45025634765625,0.98675537109375,1.3213934761964492,6.89697265625,-21.54541015625,51.57470703125,55.13650627243932,0.1099348687712336,-0.005036476809666418,1
1649427309.1973686,0.81939697265625,-0.52899169921875,0.95782470703125,1.3669937037309527,16.05224609375,-31.43310546875,41.015625,46.31285558916691,0.12317424950015265,-0.003075923340928477,1
1649427309.21451,0.812255859375,-0.53192138671875,0.901611328125,1.3249916715742571,11.8408203125,-23.74267578125,13.12255859375,33.73814533573293,0.1370306228636764,-0.0008662033614688985,1
1649427309.2314503,0.74853515625,-0.46563720703125,0.89556884765625,1.256648896711575,7.62939453125,-20.20263671875,4.8828125,31.78830239771683,0.15039667169912718,0.001595219863875297,1
1649427309.2483206,0.7078857421875,-0.3936767578125,0.8514404296875,1.1751742079115521,11.71875,-14.09912109375,6.40869140625,19.635304788798603,0.16273073201591615,0.004247016668222382,1
1649427309.2652123,0.69671630859375,-0.3779296875,0.82525634765625,1.144243200854295,4.82177734375,-8.23974609375,-1.03759765625,12.907600784735799,0,0,0
1649427309.2821002,0.62677001953125,-0.3310546875,0.82928466796875,1.0909403851847113,3.41796875,2.38037109375,-1.5869140625,2.545978224440211,0,0,0
1649427309.2991292,0.59161376953125,-0.33013916015625,0.84979248046875,1.0868053998894558,-2.62451171875,9.033203125,-2.3193359375,10.01162628000148,0,0,0
1649427309.3157494,0.4874267578125,-0.2958984375,0.8822021484375,1.0504386513520376,-7.50732421875,3.662109375,-12.02392578125,17.701563289001538,0,0,0
1649427309.3324034,0.4617919921875,-0.2801513671875,0.9298095703125,1.0753057563457202,-4.7607421875,13.36669921875,-3.41796875,15.970580792970301,0,0,0
1649427309.349009,0.43560791015625,-0.25689697265625,0.97613525390625,1.0993590586652118,3.47900390625,17.63916015625,-5.43212890625,13.298102513817039,0,0,0
1649427309.365651,0.47076416015625,-0.30999755859375,0.95654296875,1.1102665589338303,-6.2255859375,11.474609375,-3.60107421875,15.097413252322141,0,0,0
1649427309.3823142,0.49530029296875,-0.34442138671875,0.94171142578125,1.1183777900562721,-3.23486328125,14.2822265625,-1.03759765625,19.877886358638833,0,0,0
1649427309.3997145,0.5401611328125,-0.391845703125,0.94683837890625,1.158369552530031,-11.29150390625,12.20703125,-16.54052734375,16.90783996297779,0,0,0
1649427309.4165568,0.56524658203125,-0.44146728515625,0.93109130859375,1.1752991480044823,3.96728515625,8.11767578125,-12.0849609375,16.720736733157622,0,0,0
1649427309.4334493,0.56689453125,-0.45098876953125,0.89263916015625,1.1166027162501546,-3.90625,9.21630859375,-25.634765625,32.44706060383465,0,0,0
1649427309.4502861,0.5386962890625,-0.4149169921875,0.82928466796875,1.0724098389998435,-10.31494140625,13.73291015625,-21.484375,26.03455287408741,0,0,0
1649427309.4671729,0.52423095703125,-0.4017333984375,0.8408203125,1.0691990542656877,-1.8310546875,18.73779296875,-25.57373046875,30.577638652444428,0,0,0
1649427309.4840453,0.54217529296875,-0.35394287109375,0.91424560546875,1.1203011342593374,1.8310546875,3.72314453125,-17.02880859375,21.97062165059289,0,0,0
1649427309.5010877,0.5562744140625,-0.34332275390625,0.9151611328125,1.1246473385470699,4.69970703125,4.0283203125,-32.04345703125,25.355755263822367,0,0,0
1649427309.5177057,0.6214599609375,-0.3709716796875,0.81536865234375,1.0902561668724773,3.41796875,-0.67138671875,-43.0908203125,50.13275552859048,0,0,0
1649427309.534374,0.556640625,-0.31512451171875,0.721435546875,0.9641688086539626,-4.94384765625,0.42724609375,-60.97412109375,47.47173830060002,0,0,0
1649427309.5509915,0.54107666015625,-0.26934814453125,0.67657470703125,0.9072296893966219,-9.94873046875,12.75634765625,-61.6455078125,60.416419478162894,0,0,0
1649427309.5676277,0.4962158203125,-0.205810546875,0.64453125,0.839052235418008,-3.173828125,29.23583984375,-60.60791015625,64.66437889465082,0,0,0
1649427309.5842788,0.48028564453125,-0.2318115234375,0.70733642578125,0.8858530927745337,6.9580078125,36.19384765625,-57.373046875,72.06672928335709,0,0,0
1649427309.6016657,0.40850830078125,-0.22137451171875,0.76446533203125,0.8926113840329915,16.66259765625,41.19873046875,-53.28369140625,66.69701702455082,0,0,0
1649427309.6185164,0.2603759765625,-0.1907958984375,0.851806640625,0.9109189190286346,16.4794921875,49.86572265625,-53.3447265625,71.27910701268074,0,0,0
1649427309.635405,0.27520751953125,-0.211669921875,0.92156982421875,0.9848016427401458,5.67626953125,40.4052734375,-58.9599609375,66.89670308617987,0,0,0
1649427309.6522872,0.33929443359375,-0.2684326171875,0.96826171875,1.0605222952086102,-10.7421875,19.04296875,-74.15771484375,77.19280077999488,0,0,0
1649427309.6691334,0.34295654296875,-0.2977294921875,0.961669921875,1.06351825537805,-21.8505859375,5.0048828125,-85.99853515625,91.49522119299922,0,0,0
1649427309.6860127,0.279052734375,-0.312744140625,0.89007568359375,0.9838262288546262,-28.80859375,7.99560546875,-100.03662109375,99.02989368346535,0,0,0
1649427309.7030478,0.2640380859375,-0.27191162109375,0.9986572265625,1.0681611754210476,-29.60205078125,-1.15966796875,-102.23388671875,107.52075153042946,0,0,0
1649427309.719744,0.29608154296875,-0.25323486328125,1.05706787109375,1.126580960324868,-38.4521484375,-18.06640625,-102.1728515625,120.35795443064347,0,0,0
1649427309.7370472,0.3497314453125,-0.2548828125,1.03436279296875,1.1212420431942398,-49.74365234375,-34.60693359375,-96.0693359375,117.14885392326482,0,0,0
1649427309.7537158,0.34405517578125,-0.22650146484375,0.8719482421875,0.9643498403650527,-65.3076171875,-30.3955078125,-98.44970703125,110.7783882406367,0,0,0
1649427309.7703671,0.3486328125,-0.25469970703125,0.831298828125,0.9085637637870435,-54.01611328125,-15.68603515625,-91.00341796875,107.66665573102838,0,0,0
1649427309.7872806,0.32281494140625,-0.28802490234375,0.7489013671875,0.8648821240727282,-50.048828125,1.64794921875,-96.98486328125,103.015591642657,0,0,0
1649427309.8040955,0.25286865234375,-0.34588623046875,0.61376953125,0.7485271386241585,-52.91748046875,27.77099609375,-96.3134765625,107.04245752282746,0,0,0
1649427309.8213663,0.17047119140625,-0.33343505859375,0.74908447265625,0.8374765146400083,-43.27392578125,43.76220703125,-74.5849609375,94.02463344040012,0,0,0
1649427309.8379724,0.17779541015625,-0.34515380859375,0.894287109375,0.9749316865574189,-23.98681640625,41.8701171875,-58.7158203125,82.84280870119419,0,0,0
1649427309.8545783,0.140625,-0.32958984375,1.04351806640625,1.1033289675542777,-32.1044921875,20.5078125,-52.18505859375,58.74918348678362,0,0,0
1649427309.8712046,0.12835693359375,-0.41949462890625,1.04278564453125,1.1313059473560798,-39.24560546875,14.404296875,-45.8984375,63.1249003362341,0,0,0
1649427309.8878205,0.11553955078125,-0.48046875,1.00213623046875,1.1173525101504052,-36.56005859375,2.86865234375,-50.78125,70.53348464873721,0,0,0
1649427309.9049132,0.0556640625,-0.4998779296875,0.82598876953125,0.9670749091122226,-36.56005859375,26.0009765625,-58.837890625,74.05192046112452,0,0,0
1649427309.9215896,0.07470703125,-0.548583984375,0.8565673828125,1.0199182367862605,-17.88330078125,44.7998046875,-50.4150390625,77.21777106158198,0,0,0
1649427309.941819,0.09228515625,-0.5496826171875,0.93109130859375,1.0851721313418476,0.91552734375,61.8896484375,-40.34423828125,73.21321550195161,0,0,0
1649427309.9594696,0.08148193359375,-0.45574951171875,1.046630859375,1.1444575478059928,3.35693359375,48.76708984375,-55.2978515625,65.86700164511703,0,0,0
1649427309.9768662,0.08734130859375,-0.39459228515625,1.049560546875,1.1246816959692414,-7.99560546875,29.296875,-47.607421875,64.9875677580571,0,0,0
1649427309.994049,0.0618896484375,-0.3717041015625,0.97943115234375,1.049418719998604,-20.56884765625,16.11328125,-59.75341796875,62.53974366159609,0,0,0
1649427310.0113409,0.08111572265625,-0.41839599609375,0.97705078125,1.0659564715083643,-22.27783203125,18.37158203125,-64.94140625,65.55559370869085,0,0,0
1649427310.029369,0.0933837890625,-0.40521240234375,0.95562744140625,0.9755550242157187,-17.51708984375,19.4091796875,-63.5986328125,59.26252805270256,0,0,0
1649427310.0465682,0.02069091796875,-0.32171630859375,0.870849609375,0.9286056964342663,-12.75634765625,23.3154296875,-39.61181640625,50.12134787461119,0,0,0
1649427310.0637305,0.01043701171875,-0.2904052734375,0.92193603515625,0.9666489574677835,-7.01904296875,27.587890625,-39.85595703125,41.68736917054838,0,0,0
1649427310.0802462,0.03826904296875,-0.3153076171875,0.990966796875,1.0406241423371363,-2.44140625,17.9443359375,-41.015625,43.82876730599527,0,0,0
1649427310.096641,0.02325439453125,-0.2977294921875,0.99920654296875,1.042879347237638,-1.52587890625,-1.28173828125,-36.68212890625,31.23891156881888,0,0,0
1649427310.113925,-0.01593017578125,-0.3336181640625,0.9495849609375,1.0066113688666187,-1.40380859375,9.46044921875,-22.88818359375,24.797630808127877,0,0,0
1649427310.130513,-0.005126953125,-0.38763427734375,0.9345703125,1.0117847041868664,2.44140625,7.75146484375,-32.71484375,33.167988754803744,0,0,0
1649427310.1469767,0.01922607421875,-0.3878173828125,0.9385986328125,1.0261233409415564,0.54931640625,14.46533203125,-31.25,32.68978240759016,0,0,0
1649427310.1634877,0.02252197265625,-0.37628173828125,0.97247314453125,1.042976127555557,1.89208984375,10.80322265625,-32.28759765625,29.748362343857156,0,0,0
1649427310.1800401,-0.00604248046875,-0.361083984375,0.9752197265625,1.0399383012558858,3.11279296875,7.62939453125,-30.57861328125,27.985867105361077,0,0,0
1649427310.1965103,-0.0201416015625,-0.36712646484375,0.9517822265625,1.0133489083236364,2.5634765625,2.197265625,-18.06640625,23.21888372452068,0,0,0
1649427310.2134118,0.015380859375,-0.42535400390625,0.9503173828125,1.0412808110926617,0.6103515625,1.64794921875,-15.07568359375,28.01852735558163,0,0,0
1649427310.230311,0.073974609375,-0.50958251953125,0.9613037109375,1.090528042604228,8.056640625,8.6669921875,-26.611328125,22.933386353243854,0,0,0
1649427310.2471678,0.05859375,-0.47332763671875,0.947021484375,1.0603404977122433,9.94873046875,10.19287109375,-18.00537109375,23.571742574862693,0,0,0
1649427310.2640572,0.06170654296875,-0.45062255859375,0.95361328125,1.0565257582923018,13.12255859375,-0.244140625,-22.52197265625,27.37738039824008,0,0,0
1649427310.2809527,0.078369140625,-0.4295654296875,0.95855712890625,1.0533280353061436,2.01416015625,-3.41796875,-28.74755859375,26.050002035664427,0,0,0
1649427310.2978005,0.0260009765625,-0.35357666015625,0.90106201171875,0.9683001881400689,0.8544921875,-0.79345703125,-24.59716796875,27.576815652428312,0,0,0
1649427310.314501,0.03094482421875,-0.33013916015625,0.884033203125,0.9441737930286198,-0.67138671875,5.0048828125,-25.2685546875,27.781122059307567,0,0,0
1649427310.3312595,0.0867919921875,-0.34881591796875,0.91278076171875,0.9810066837183722,-0.8544921875,-1.5869140625,-27.28271484375,21.855870465634112,0,0,0
1649427310.3478806,0.1036376953125,-0.2962646484375,0.95489501953125,1.0051557153640764,8.72802734375,4.7607421875,-16.7236328125,20.539304985045685,0,0,0
1649427310.3645482,0.11114501953125,-0.3076171875,0.96697998046875,1.0207996042511753,10.43701171875,-2.38037109375,-16.90673828125,20.658484501097735,0,0,0
1649427310.38121,0.1036376953125,-0.2860107421875,1.00469970703125,1.0497449298972636,11.04736328125,-5.37109375,-8.72802734375,22.830412116289036,0,0,0
1649427310.397853,0.107666015625,-0.3021240234375,0.9539794921875,1.0064530629755897,3.90625,-10.7421875,-15.9912109375,14.503525157455702,0,0,0
1649427310.4147346,0.14208984375,-0.34222412109375,0.94244384765625,1.0130766736341172,10.07080078125,-8.544921875,-8.056640625,10.644293266225835,0,0,0
1649427310.4316065,0.16241455078125,-0.34130859375,0.93402099609375,1.0076037235029647,2.86865234375,-1.8310546875,-15.13671875,14.387864907456912,0,0,0
1649427310.4484956,0.18731689453125,-0.3720703125,0.99298095703125,1.0768171234928317,9.6435546875,-2.9296875,-12.6953125,22.42392101987947,0,0,0
1649427310.4653962,0.18438720703125,-0.35247802734375,0.97320556640625,1.051365053804356,14.0380859375,4.08935546875,-21.30126953125,24.86866187813201,0,0,0
1649427310.482335,0.18841552734375,-0.33636474609375,0.9788818359375,1.0520700081683285,19.1650390625,2.5634765625,-15.9912109375,26.255618811023677,0,0,0
1649427310.4992278,0.1922607421875,-0.29571533203125,0.95672607421875,1.0196747185621804,9.09423828125,-3.662109375,-15.0146484375,15.98631805811095,0,0,0
1649427310.5159888,0.19189453125,-0.257080078125,0.91424560546875,0.9688956108948655,6.40869140625,1.8310546875,-14.6484375,25.043387314769454,0,0,0
1649427310.532613,0.19903564453125,-0.25250244140625,0.92413330078125,0.9784656500475298,6.40869140625,0.18310546875,-7.8125,15.306444138354546,0,0,0
1649427310.549289,0.20306396484375,-0.2431640625,0.95452880859375,1.00572808529193,-1.03759765625,-1.52587890625,-7.75146484375,21.30126953125,0,0,0
1649427310.565961,0.22393798828125,-0.27191162109375,0.9715576171875,1.0334448973198025,4.0283203125,-2.38037109375,-14.22119140625,8.82691602952758,0,0,0
1649427310.5826478,0.22027587890625,-0.29095458984375,0.96826171875,1.0347496277727137,7.26318359375,4.33349609375,-8.30078125,17.123597735053732,0,0,0
1649427310.5993514,0.22705078125,-0.292236328125,0.94866943359375,1.018296529983926,4.45556640625,-4.0283203125,-12.8173828125,13.647329913279808,0,0,0
1649427310.6161754,0.238037109375,-0.2830810546875,0.9298095703125,1.00067096790469,1.15966796875,0.06103515625,-10.43701171875,10.907889201975562,0,0,0
1649427310.6338332,0.23895263671875,-0.24151611328125,0.9664306640625,1.0244103787104117,-5.55419921875,-1.28173828125,-2.50244140625,12.68665311833846,0,0,0
1649427310.6507056,0.2420654296875,-0.23199462890625,0.952880859375,1.010148064520435,-1.220703125,-9.765625,-17.4560546875,15.853757004159199,0,0,0
1649427310.6675484,0.25469970703125,-0.24481201171875,0.92486572265625,0.9900411439874878,4.82177734375,-6.89697265625,-10.19287109375,20.75392769787838,0,0,0
1649427310.6847432,0.2724609375,-0.25140380859375,0.91131591796875,0.9838371510478994,-2.74658203125,-0.30517578125,-21.728515625,10.779230232675573,0,0,0
1649427310.7016177,0.27264404296875,-0.2581787109375,0.9144287109375,0.9885195437291631,0.0,-0.67138671875,-19.95849609375,15.699922225540833,0,0,0
1649427310.7183657,0.26641845703125,-0.2724609375,0.94903564453125,1.0226839254144635,7.50732421875,-9.33837890625,-4.69970703125,18.952374272837105,0,0,0
1649427310.7355378,0.24151611328125,-0.2596435546875,0.94464111328125,1.0090052732104435,1.40380859375,-11.04736328125,-25.5126953125,16.825345772397004,0,0,0
1649427310.7524338,0.23272705078125,-0.24957275390625,0.9825439453125,1.0401158801441026,-0.6103515625,-12.5732421875,-11.1083984375,17.363831518870384,0,0,0
1649427310.769081,0.22357177734375,-0.2559814453125,0.9884033203125,1.0452042688267658,-0.79345703125,-12.939453125,-7.62939453125,14.050022523665108,0,0,0
1649427310.7857563,0.1904296875,-0.22760009765625,0.96551513671875,1.0100914560412382,0.18310546875,-10.25390625,-6.04248046875,19.736357419437223,0,0,0
1649427310.802533,0.17816162109375,-0.2406005859375,0.9898681640625,1.0341514334993138,3.173828125,-7.8125,-21.484375,12.939021265272613,0,0,0
1649427310.8192847,0.161865234375,-0.2479248046875,1.0008544921875,1.0437321387264584,-1.953125,-9.46044921875,-15.80810546875,18.787430119336914,0,0,1
1649427310.8360052,0.13494873046875,-0.24462890625,1.007080078125,1.0451147044150009,-2.99072265625,-8.36181640625,-18.4326171875,13.342709547659217,0.0024775517740636133,2.0680505367721112e-05,1
1649427310.852678,0.1204833984375,-0.25927734375,0.9971923828125,1.0373686127025323,6.77490234375,-13.3056640625,-21.6064453125,23.85225481314926,0.004616016580257565,8.006749924747113e-05,1
1649427310.8693483,0.09283447265625,-0.20635986328125,0.98455810546875,1.01022635856081,4.21142578125,-5.67626953125,-7.26318359375,12.669022555399906,0.0063947827075026,0.00017188182641349626,1
1649427310.8860211,0.0509033203125,-0.1241455078125,0.90069580078125,0.9106350425246317,-12.51220703125,-2.13623046875,-8.36181640625,24.314141838317397,0.007593299036670942,0.00028851743099508626,1
1649427310.9026885,0.05657958984375,-0.0692138671875,0.83404541015625,0.838822720007418,-23.681640625,-4.08935546875,-11.71875,26.791166136729675,0.008488092193147168,0.0004223947031878443,1
1649427310.9196737,0.02545166015625,-0.1043701171875,0.83441162109375,0.8412987945924691,-37.109375,-7.38525390625,-16.29638671875,44.7099913170878,0.00917712235241197,0.0005707755408780359,1
1649427310.9366093,-0.0245361328125,-0.275390625,1.06182861328125,1.0972338046806913,-38.51318359375,-13.5498046875,-15.2587890625,44.858390066507944,0.009184887858282309,0.0007264210422581966,1
1649427310.9536,-0.16827392578125,-0.36456298828125,1.22186279296875,1.2861457815363633,2.5634765625,3.11279296875,-7.75146484375,13.09997033923919,0.007548465589934494,0.0008684407709306109,1
1649427310.9705417,-0.19775390625,-0.5537109375,1.1806640625,1.3189655182085946,57.06787109375,20.20263671875,2.13623046875,73.9061145498958,0.004450588327017613,0.0009699947869177506,1
1649427310.9874718,-0.2274169921875,-0.59326171875,1.08929443359375,1.2610473101070165,72.57080078125,45.47119140625,8.4228515625,89.97486747065241,0.000837759260321036,0.0010149317662560492,1
1649427311.0045648,-0.31768798828125,-0.57275390625,1.03692626953125,1.226453742897308,57.67822265625,57.0068359375,12.39013671875,79.06946072450856,-0.0037704742862842977,0.0009901394527554357,1
1649427311.021953,-0.36181640625,-0.6163330078125,1.14093017578125,1.3462908877204445,24.23095703125,49.31640625,20.8740234375,50.67972892476096,-0.009714167739730328,0.0008721879292963768,1
1649427311.0386581,-0.43524169921875,-0.55810546875,1.1978759765625,1.3913388897795695,14.2822265625,22.15576171875,12.75634765625,43.13324738849664,-0.016449808746983763,0.0006510859146156723,1
1649427311.0554051,-0.5430908203125,-0.4530029296875,1.20391845703125,1.3962732342180266,18.1884765625,12.0849609375,27.77099609375,42.00580287480272,-0.024652954540215433,0.000306446486795022,1
1649427311.072773,-0.6068115234375,-0.37884521484375,1.1290283203125,1.336581037518568,12.63427734375,4.39453125,53.52783203125,54.00614673457621,-0.03427151672076434,-0.00018643770798919355,1
1649427311.0902214,-0.58319091796875,-0.48760986328125,1.14990234375,1.3784594392770997,25.45166015625,6.591796875,67.626953125,60.74154230983336,-0.04468909962452017,-0.0008776789511051328,1
1649427311.1074448,-0.5767822265625,-0.4541015625,1.07244873046875,1.299627733401904,25.45166015625,-6.28662109375,75.3173828125,92.39305516051186,-0.054844628131831996,-0.0017490936165516545,1
1649427311.1241958,-0.50225830078125,-0.501708984375,0.94171142578125,1.1793200223659468,24.96337890625,-5.9814453125,91.064453125,90.41960311917511,-0.06402841374801937,-0.0027608299735317242,1
1649427311.1408508,-0.4581298828125,-0.5577392578125,0.89794921875,1.152071555366579,12.0849609375,-23.193359375,100.4638671875,98.09678847537056,-0.0720380522616324,-0.003895624450577409,1
1649427311.158452,-0.44952392578125,-0.517822265625,0.8734130859375,1.0924262858156286,-13.5498046875,-41.93115234375,105.04150390625,118.98623296598268,-0.0798738435114501,-0.005207082511317744,1
1649427311.1751578,-0.37939453125,-0.53045654296875,0.86297607421875,1.0816894466503637,-5.37109375,-59.02099609375,110.16845703125,120.90021480307732,-0.08692912001424702,-0.006626813269123002,1
1649427311.1918364,-0.167724609375,-0.61724853515625,0.72711181640625,0.9684104978262725,10.25390625,-54.50439453125,113.037109375,128.94650033185863,-0.09149555100157158,-0.008116002526327716,1
1649427311.208722,0.072509765625,-0.6405029296875,0.569091796875,0.8598646069700039,35.21728515625,-40.34423828125,121.2158203125,122.87265311509724,-0.09229020964266965,-0.009649827603973815,1
1649427311.2255576,0.1505126953125,-0.5760498046875,0.60992431640625,0.8523468312103775,47.42431640625,-24.658203125,135.68115234375,138.1172047655013,-0.09039774013945134,-0.01120003636821586,1
1649427311.2422135,0.284912109375,-0.489990234375,0.65570068359375,0.8667229813018058,39.794921875,-22.76611328125,129.69970703125,140.47661210866428,-0.086755188756797,-0.012682011301994412,1
1649427311.2588603,0.46966552734375,-0.58740234375,0.66778564453125,1.0057658216802223,23.92578125,-30.6396484375,133.1787109375,134.82004255612728,-0.08047532342607155,-0.01407376351487915,1
1649427311.2755682,0.58209228515625,-0.579345703125,0.730224609375,1.0989544359547838,11.53564453125,-44.921875,130.2490234375,136.78904497361205,-0.07169338100356981,-0.015344338151858893,1
1649427311.292227,0.63555908203125,-0.44512939453125,0.74212646484375,1.0736979158262552,-0.06103515625,-54.5654296875,131.2255859375,151.3894095567427,-0.06155471496458631,-0.01645381659680325,1
1649427311.3088965,0.7342529296875,-0.53887939453125,0.64105224609375,1.113762249686568,1.46484375,-49.62158203125,140.19775390625,144.39128851967732,-0.05013962575321784,-0.01738460188178475,1
1649427311.325834,0.7672119140625,-0.5782470703125,0.60186767578125,1.133679185023152,12.3291015625,-36.0107421875,145.3857421875,144.95338189991617,-0.0375304188564769,-0.018120849377509803,1
1649427311.3427007,0.74505615234375,-0.55938720703125,0.574951171875,1.0948020677619912,-0.244140625,-33.02001953125,148.49853515625,139.0876715091907,-0.024766489055764396,-0.018646651235696823,1
1649427311.3595815,0.66925048828125,-0.47113037109375,0.6910400390625,1.0711658966841353,-2.0751953125,-34.423828125,146.728515625,156.80487575750627,-0.012830053172365297,-0.0189639577538542,1
1649427311.3764598,0.638671875,-0.4610595703125,0.72637939453125,1.0872497143149686,-2.685546875,-36.68212890625,157.28759765625,161.85562542548365,-0.0017978696851059794,-0.019087342698963818,1
1649427311.394085,0.67913818359375,-0.55279541015625,0.7294921875,1.1397237777322933,6.34765625,-19.775390625,156.55517578125,157.9420266342442,0.009693015876109712,-0.019018498899740947,1
1649427311.4110608,0.796875,-0.608642578125,0.7540283203125,1.2545972506605205,5.0048828125,-25.634765625,149.5361328125,145.3129532509575,0.022298922900517937,-0.018745271390507717,1
1649427311.4280913,0.87744140625,-0.59417724609375,0.86846923828125,1.370105411644792,5.7373046875,-31.06689453125,135.31494140625,138.36326645344104,0.03663995637180051,-0.01824044181513653,1
1649427311.4452393,0.9019775390625,-0.6016845703125,0.92633056640625,1.4260701670618825,5.859375,-62.92724609375,118.408203125,126.0367700581939,0.05170198115956737,-0.017492664875702443,1
1649427311.4621656,0.9693603515625,-0.610107421875,0.8624267578125,1.4337609528785868,5.55419921875,-64.208984375,100.5859375,120.76675194781946,0.06764646257943241,-0.016475772601346403,1
1649427311.4792242,1.05322265625,-0.65478515625,0.6317138671875,1.3917916419064418,0.3662109375,-74.21875,73.3642578125,90.5650458481531,0.08488876977207838,-0.015175425805320025,1
1649427311.495964,1.06329345703125,-0.5482177734375,0.52880859375,1.307965684451274,-14.6484375,-60.302734375,56.70166015625,83.73723149823881,0.10284959426644491,-0.013582271949227773,1
1649427311.5126495,1.030517578125,-0.4610595703125,0.5357666015625,1.249635249803395,-20.99609375,-49.13330078125,45.10498046875,73.14474617655287,0.1203034941572696,-0.011722079410226655,1
1649427311.529393,1.00140380859375,-0.36016845703125,0.6177978515625,1.2305304103115777,-19.95849609375,-46.142578125,50.78125,68.28863025472188,0,0,0
1649427311.5460086,0.95819091796875,-0.32244873046875,0.60791015625,1.179685456861533,-16.357421875,-33.63037109375,36.80419921875,53.83335381567519,0,0,0
1649427311.5626194,0.951416015625,-0.3109130859375,0.62567138671875,1.1803914884280948,-4.0283203125,-18.12744140625,28.1982421875,34.17941502053778,0,0,0
1649427311.5792243,0.933837890625,-0.27996826171875,0.6353759765625,1.163674381057484,12.3291015625,-2.74658203125,13.916015625,21.673153416689534,0,0,0
1649427311.5959306,0.76483154296875,-0.24700927734375,0.66064453125,1.040399956211251,20.32470703125,-5.859375,8.97216796875,25.53422375453199,0,0,0
1649427311.6126297,0.7657470703125,-0.20819091796875,0.71246337890625,1.0664502333908312,16.66259765625,-9.27734375,10.1318359375,22.566175631651674,0,0,0
1649427311.6295638,0.73040771484375,-0.2354736328125,0.74908447265625,1.0724135437544031,5.2490234375,-13.12255859375,2.86865234375,24.339256121576764,0,0,0
1649427311.6464264,0.7247314453125,-0.2896728515625,0.75384521484375,1.085093837739352,4.82177734375,-4.69970703125,-1.708984375,17.612106537874205,0,0,1
1649427311.6633182,0.7177734375,-0.308349609375,0.78826904296875,1.109795599777342,8.6669921875,0.79345703125,-4.69970703125,20.053091065156796,0.012120943269110285,0.0001018487129461499,1
1649427311.6802158,0.6976318359375,-0.31695556640625,0.84521484375,1.1408501837159735,1.03759765625,-7.8125,-23.37646484375,32.889398656168616,0.024093310625175945,0.00040817112058791523,1
1649427311.6970918,0.68536376953125,-0.32061767578125,0.8675537109375,1.151159690039085,-8.60595703125,-13.24462890625,-26.91650390625,43.71161309505077,0.03577950188628165,0.0009140911217668532,1
1649427311.7139595,0.65020751953125,-0.34149169921875,0.84100341796875,1.1165451840948535,-23.98681640625,-7.50732421875,-35.21728515625,40.835940641085976,0.0470503142933012,0.001613087369674593,1
1649427311.7309775,0.63299560546875,-0.3541259765625,0.822509765625,1.0966362014668247,-15.68603515625,0.42724609375,-15.56396484375,22.22090463076682,0.05798290813254425,0.002507946132123947,1
1649427311.7476554,0.59197998046875,-0.3607177734375,0.89154052734375,1.1293370273066676,-9.09423828125,10.07080078125,-11.65771484375,17.191340277540245,0,0,0
1649427311.7642639,0.5390625,-0.41162109375,0.89593505859375,1.1237081173256616,-9.46044921875,6.04248046875,-7.50732421875,16.262633841078916,0,0,0
1649427311.780886,0.532470703125,-0.44439697265625,0.87469482421875,1.1162906227804397,-6.4697265625,16.54052734375,0.732421875,18.073930977566192,0,0,0
1649427311.79748,0.523681640625,-0.5020751953125,0.87615966796875,1.1375314176983802,-2.01416015625,19.8974609375,22.3388671875,29.976029952794022,0,0,0
1649427311.8142192,0.56634521484375,-0.56103515625,0.85107421875,1.166119494196799,10.43701171875,22.39990234375,13.7939453125,36.221215642253306,0,0,0
1649427311.8311713,0.595458984375,-0.5592041015625,0.8470458984375,1.1767613960939665,19.53125,34.97314453125,19.53125,44.91544760457546,0,0,0
1649427311.8479934,0.649658203125,-0.57806396484375,0.8309326171875,1.2027729389392448,27.9541015625,39.12353515625,21.66748046875,56.48473135385974,0,0,0
1649427311.8648252,0.63592529296875,-0.609375,0.760986328125,1.1639755411758277,35.21728515625,44.61669921875,8.60595703125,57.69714368059176,0,0,0
1649427311.8816748,0.61138916015625,-0.599853515625,0.73388671875,1.0953240121217402,26.55029296875,46.32568359375,-5.2490234375,53.96091205247826,0,0,0
1649427311.8984928,0.58355712890625,-0.5533447265625,0.76556396484375,1.1103231481776448,23.74267578125,46.630859375,-19.34814453125,56.589136069333414,0,0,0
1649427311.9153695,0.53997802734375,-0.48394775390625,0.9056396484375,1.160157261472319,6.34765625,35.0341796875,-51.08642578125,62.49442671722166,0,0,0
1649427311.9322798,0.53704833984375,-0.3636474609375,0.9825439453125,1.1773075212727862,7.38525390625,24.71923828125,-64.39208984375,71.14471558008856,0,0,0
1649427311.9488833,0.566162109375,-0.3427734375,0.99188232421875,1.1924192671393337,-0.18310546875,10.68115234375,-68.115234375,84.41804211868262,0,0,0
1649427311.965497,0.59710693359375,-0.28948974609375,0.93603515625,1.1473895663527347,-6.04248046875,-1.89208984375,-98.6328125,104.85493451082453,0,0,0
1649427311.9821737,0.51434326171875,-0.25506591796875,0.7642822265625,0.9558948348139853,-27.099609375,1.8310546875,-101.806640625,94.4537530819793,0,0,0
1649427311.9987822,0.47991943359375,-0.2303466796875,0.7254638671875,0.8998222481016149,-29.541015625,10.31494140625,-87.82958984375,97.74594955759939,0,0,0
1649427312.0157006,0.4530029296875,-0.19482421875,0.75347900390625,0.900499161490204,-27.34375,33.8134765625,-74.5849609375,82.96521159527452,0,0,0
1649427312.0324335,0.46893310546875,-0.202880859375,0.86151123046875,1.0016289236683833,-15.5029296875,33.50830078125,-66.83349609375,88.00554180305964,0,0,0
1649427312.049138,0.4833984375,-0.19097900390625,0.900146484375,1.0394280747810967,-19.22607421875,33.38623046875,-83.740234375,82.66794525796504,0,0,0
1649427312.0660384,0.47552490234375,-0.23785400390625,0.78497314453125,0.9480935067589832,-20.69091796875,40.52734375,-84.28955078125,89.68413728796598,0,0,0
1649427312.0829744,0.38671875,-0.302490234375,0.68829345703125,0.8454582287054956,-29.35791015625,46.2646484375,-85.26611328125,103.13009047226575,0,0,0
1649427312.0996397,0.3834228515625,-0.3577880859375,0.69891357421875,0.9256960129430443,-13.36669921875,53.22265625,-83.80126953125,111.46826038835914,0,0,0
1649427312.1163526,0.374267578125,-0.3636474609375,0.81903076171875,0.9711473032055639,-22.76611328125,51.81884765625,-85.87646484375,103.27945615333086,0,0,0
1649427312.13305,0.37847900390625,-0.33270263671875,0.89117431640625,1.023781745832393,-32.53173828125,38.0859375,-98.6328125,107.75267212579156,0,0,0
1649427312.1497107,0.34735107421875,-0.33087158203125,0.85693359375,0.9820712584400746,-28.74755859375,34.5458984375,-106.75048828125,118.07753807831634,0,0,0
1649427312.1663787,0.16937255859375,-0.39678955078125,0.63922119140625,0.7711891744290794,-36.865234375,48.40087890625,-106.87255859375,115.97455450512265,0,0,0
1649427312.1829984,0.1182861328125,-0.43634033203125,0.60205078125,0.7528941743542802,-25.390625,73.1201171875,-117.37060546875,133.37703940933633,0,0,0
1649427312.1996284,0.11480712890625,-0.4449462890625,0.69049072265625,0.8294186609140985,-11.29150390625,100.28076171875,-110.2294921875,148.66441398257103,0,0,0
1649427312.2163515,0.13568115234375,-0.40045166015625,0.75018310546875,0.861130419247841,-27.4658203125,100.7080078125,-110.53466796875,151.70834151059054,0,0,0
1649427312.2336898,0.12139892578125,-0.33526611328125,0.95489501953125,1.019296602673208,-34.11865234375,69.51904296875,-115.234375,131.99559187301907,0,0,0
1649427312.2503314,-0.01007080078125,-0.32391357421875,0.979248046875,1.0314786289109645,-40.52734375,56.884765625,-98.93798828125,134.2396631257135,0,0,0
1649427312.2669735,-0.031494140625,-0.3270263671875,1.0078125,1.0600113965829852,-37.2314453125,50.048828125,-92.8955078125,116.41706890035803,0,0,0
1649427312.2838511,-0.028564453125,-0.315673828125,1.0697021484375,1.115674047433759,-31.79931640625,35.09521484375,-72.021484375,89.79617808190852,0,0,0
1649427312.301514,0.0435791015625,-0.2735595703125,1.09295654296875,1.1275140714956755,-30.1513671875,23.0712890625,-52.30712890625,63.28509872412246,0,0,0
1649427312.3181288,0.08184814453125,-0.28125,1.09332275390625,1.0927924290047364,-20.81298828125,1.40380859375,-33.26416015625,41.493582844099436,0,0,0
1649427312.3347816,0.10418701171875,-0.35174560546875,0.988037109375,1.0539436578297563,-9.09423828125,1.3427734375,-23.681640625,26.977884281763195,0,0,0
1649427312.3514113,0.1439208984375,-0.4544677734375,0.9063720703125,1.0240920427104507,5.7373046875,-5.55419921875,-23.0712890625,21.447757380077622,0,0,0
1649427312.3680816,0.1549072265625,-0.49163818359375,0.879638671875,1.0195433023990013,2.685546875,-11.90185546875,-23.13232421875,32.84536486937664,0,0,0
1649427312.3847265,0.16845703125,-0.50665283203125,0.8843994140625,1.033071724120326,-3.90625,-15.2587890625,-34.24072265625,35.97788200485222,0,0,0
1649427312.4013317,0.125244140625,-0.46197509765625,0.87451171875,0.9969342164087235,-23.25439453125,-33.3251953125,-37.4755859375,59.26441384688846,0,0,0
1649427312.4180925,0.06756591796875,-0.35906982421875,0.80657958984375,0.8854755370353017,-35.70556640625,-44.00634765625,-27.52685546875,64.35380855381216,0,0,0
1649427312.434833,0.03094482421875,-0.34442138671875,0.7994384765625,0.8710255745865141,-39.0625,-30.45654296875,-19.22607421875,51.850002884381915,0,0,0
1649427312.451675,0.01483154296875,-0.36822509765625,0.80548095703125,0.8857817278261993,-23.62060546875,-24.96337890625,-20.32470703125,39.8851086500098,0,0,0
1649427312.4685626,0.07452392578125,-0.42169189453125,0.84320068359375,0.9457088675909576,-3.90625,-9.21630859375,-16.17431640625,9.295395805587066,0,0,0
1649427312.4857674,0.09979248046875,-0.4112548828125,0.85125732421875,0.9506461748891093,-10.6201171875,-8.97216796875,-19.22607421875,21.616184604267687,0,0,0
1649427312.5026789,0.1270751953125,-0.42242431640625,0.9268798828125,1.0264973090649148,-9.58251953125,-8.23974609375,-16.6015625,20.178927889833023,0,0,0
1649427312.5195634,0.13824462890625,-0.47113037109375,1.024658203125,1.1362217376989912,5.4931640625,1.0986328125,-9.8876953125,21.0448298264192,0,0,0
1649427312.536369,0.14923095703125,-0.46490478515625,1.05523681640625,1.1627257099147845,13.18359375,-16.05224609375,-16.90673828125,31.207114834207374,0,0,0
1649427312.5530255,0.14263916015625,-0.4039306640625,0.99517822265625,1.0834600159808876,0.79345703125,-14.70947265625,-19.10400390625,25.54020470847835,0,0,0
1649427312.5696862,0.17578125,-0.43194580078125,0.96661376953125,1.0732280289442362,5.06591796875,-8.30078125,-27.2216796875,28.940834800751446,0,0,0
1649427312.5863762,0.21240234375,-0.46417236328125,0.95819091796875,1.085679774953181,2.86865234375,-3.90625,-40.283203125,41.72314352839028,0,0,0
1649427312.6030536,0.216064453125,-0.4735107421875,0.9818115234375,1.1112381105891873,16.41845703125,2.50244140625,-43.15185546875,38.3991178527973,0,0,0
1649427312.6201413,0.18896484375,-0.3834228515625,1.049560546875,1.133268784018306,17.15087890625,0.732421875,-31.982421875,36.945029293337285,0,0,0
1649427312.636922,0.16864013671875,-0.3284912109375,1.0887451171875,1.149657297447951,18.5546875,-10.43701171875,-34.7900390625,42.85459092183176,0,0,0
1649427312.6535983,0.15472412109375,-0.34515380859375,1.05743408203125,1.1230483262425872,39.0625,-6.9580078125,-25.0244140625,41.41899848311999,0,0,0
1649427312.6702986,0.1959228515625,-0.35980224609375,0.9796142578125,1.0618321497148333,34.60693359375,-8.9111328125,-23.37646484375,50.155823013532185,0,0,0
1649427312.6869357,0.2156982421875,-0.34698486328125,0.90673828125,0.9945343320938143,27.34375,-8.30078125,-37.90283203125,47.698105738872485,0,0,0
1649427312.7036183,0.2197265625,-0.3460693359375,0.87799072265625,0.9689744354804892,15.13671875,-6.591796875,-32.28759765625,34.7545777674351,0,0,0
1649427312.720323,0.20269775390625,-0.267333984375,0.843017578125,0.9073215944020024,-3.90625,3.35693359375,-31.25,28.185490619063234,0,0,0
1649427312.7372806,0.14044189453125,-0.23089599609375,0.88201904296875,0.9224936199839875,-1.89208984375,2.99072265625,-18.49365234375,25.20426805414547,0,0,0
1649427312.7541792,0.12762451171875,-0.2413330078125,0.8939208984375,0.9832214340123859,34.60693359375,19.22607421875,-20.69091796875,39.42162417567499,0,0,0
1649427312.7710993,0.1856689453125,-0.34552001953125,0.91973876953125,0.9998882164168099,44.677734375,20.93505859375,-13.61083984375,43.810531770626106,0,0,0
1649427312.787932,0.18988037109375,-0.36639404296875,0.90380859375,0.9935638500801239,27.34375,17.08984375,-13.48876953125,31.260786579099726,0,0,0
1649427312.8048139,0.18035888671875,-0.36016845703125,0.90875244140625,0.9940229601073197,3.84521484375,2.99072265625,-21.78955078125,19.68258402771216,0,0,0
1649427312.821689,0.15765380859375,-0.333251953125,0.91387939453125,0.9854375349937438,-4.45556640625,7.2021484375,-12.26806640625,14.224203552046895,0,0,0
1649427312.8386693,0.1761474609375,-0.3343505859375,0.958740234375,1.0305343659097002,-9.58251953125,8.7890625,-13.85498046875,18.934872297023066,0,0,0
1649427312.8553798,0.17852783203125,-0.32794189453125,0.9759521484375,1.0449405098082358,14.404296875,-0.06103515625,-16.41845703125,13.585773188434805,0,0,0
1649427312.8720043,0.1629638671875,-0.3182373046875,0.9814453125,1.0445415767367485,12.39013671875,-0.06103515625,-10.25390625,16.691301934264228,0,0,0
1649427312.8886228,0.188232421875,-0.3424072265625,0.9788818359375,1.0539847257790418,6.28662109375,-0.79345703125,-10.6201171875,13.986243011339218,0,0,0
1649427312.9053366,0.22613525390625,-0.34716796875,0.99224853515625,1.07527666537732,9.33837890625,0.42724609375,-8.30078125,14.021889008697183,0,0,0
1649427312.9219766,0.21661376953125,-0.34149169921875,0.97174072265625,1.052529399995239,4.8828125,-1.8310546875,-10.6201171875,22.855934311749667,0,0,0
1649427312.9388826,0.2105712890625,-0.30487060546875,0.92633056640625,0.9976846556476897,0.18310546875,4.21142578125,-16.9677734375,14.04193327883631,0,0,0
1649427312.955716,0.217529296875,-0.26202392578125,0.90655517578125,0.9684099438856062,7.01904296875,2.25830078125,-16.29638671875,18.060631731291274,0,0,0
1649427312.9725645,0.21624755859375,-0.24371337890625,0.92742919921875,0.9881604501528758,2.62451171875,4.08935546875,-11.41357421875,17.519322694963897,0,0,0
1649427312.98942,0.21826171875,-0.2098388671875,0.94189453125,0.989361327348555,3.5400390625,-2.25830078125,-2.99072265625,11.816570186265956,0,0,0
1649427313.0063996,0.21826171875,-0.23162841796875,0.93603515625,0.9886615779013423,-6.7138671875,-4.21142578125,-12.0849609375,18.027082381415056,0,0,0
1649427313.0243912,0.21478271484375,-0.21478271484375,0.90325927734375,0.9529640870981743,-2.62451171875,-6.77490234375,-2.25830078125,12.603131664226122,0,0,0
1649427313.0413954,0.22100830078125,-0.19976806640625,0.87945556640625,0.8965428090218475,-12.51220703125,-12.02392578125,-11.41357421875,13.20476950612196,0,0,0
1649427313.0580497,0.228515625,-0.1717529296875,0.8250732421875,0.8731920262457582,-5.79833984375,-11.04736328125,-0.9765625,18.715114724513114,0,0,0
1649427313.0750747,0.26513671875,-0.22796630859375,0.812255859375,0.8843221689929509,-14.16015625,-8.36181640625,-8.544921875,22.943780132867264,0,0,0
1649427313.091729,0.268798828125,-0.2490234375,0.81170654296875,0.8905801448067259,-16.9677734375,5.0048828125,-10.43701171875,20.87090005986453,0,0,0
1649427313.1083624,0.29168701171875,-0.208740234375,0.85089111328125,0.9234010422960054,-15.56396484375,0.1220703125,-5.55419921875,18.777513186232135,0,0,0
1649427313.125916,0.2926025390625,-0.16864013671875,0.92779541015625,0.9873500213629129,-14.95361328125,-9.6435546875,-8.60595703125,16.852999226705414,0,0,0
1649427313.1430016,0.3079833984375,-0.16644287109375,0.96697998046875,1.0284003528190695,-3.41796875,-0.244140625,6.53076171875,4.910960129368028,0,0,0
1649427313.1596704,0.29315185546875,-0.17010498046875,0.96148681640625,1.0194756558486675,-1.03759765625,0.244140625,5.55419921875,3.0006710335160776,0,0,0
1649427313.1768548,0.27813720703125,-0.22686767578125,0.978515625,1.0422677566818765,-1.3427734375,-2.38037109375,-3.23486328125,3.3906114287917846,0,0,0
1649427313.193731,0.2581787109375,-0.3021240234375,1.0118408203125,1.087086481366632,5.67626953125,-3.23486328125,2.8076171875,5.552857624716238,0,0,0
1649427313.2105565,0.246826171875,-0.2947998046875,1.0118408203125,1.053024395359528,4.69970703125,-4.39453125,-12.0849609375,8.609852010870664,0,0,0
1649427313.2272222,0.20928955078125,-0.2427978515625,0.97650146484375,1.0277684679107317,0.1220703125,-3.173828125,-7.2021484375,10.316205370506152,0,0,0
1649427313.2439382,0.182373046875,-0.18695068359375,1.03802490234375,1.0703766552986818,5.31005859375,-5.859375,-1.15966796875,8.070961910386211,0,0,0
1649427313.2606099,0.19775390625,-0.1640625,1.02337646484375,1.055140985906374,9.8876953125,-3.96728515625,4.8828125,14.298519394325005,0,0,0
1649427313.2772217,0.2109375,-0.1885986328125,1.0345458984375,1.072543374031488,9.521484375,-13.427734375,8.23974609375,14.863909032649545,0,0,0
1649427313.2938812,0.240234375,-0.26422119140625,1.01934814453125,1.0800907520570115,7.32421875,-20.1416015625,-0.244140625,22.599003256279637,0,0,1
1649427313.3105166,0.2413330078125,-0.3072509765625,0.9613037109375,1.0376654605028766,10.07080078125,-8.72802734375,-5.55419921875,18.826056244082775,0.004009957701782696,3.339046900596894e-05,1
1649427313.327171,0.23199462890625,-0.35009765625,0.93475341796875,1.0247701347899207,5.126953125,-7.62939453125,-21.97265625,20.7980373524909,0.007953673812153284,0.0001330701890982092,1
1649427313.3440921,0.13165283203125,-0.36419677734375,0.89630126953125,0.9763850298794795,6.9580078125,4.8828125,1.40380859375,12.509378253022456,0.010980901868606452,0.0002906933953487354,1
1649427313.3609638,0.0157470703125,-0.41326904296875,1.087646484375,1.1636211355389823,11.53564453125,13.18359375,7.2021484375,17.53377618115584,0.012233657515025698,0.0004879945460588477,1
1649427313.3778596,0.04412841796875,-0.53411865234375,1.15814208984375,1.2761360242237412,28.25927734375,11.53564453125,-18.49365234375,29.295221917880482,0.012738765013637021,0.0006986610180960851,1
1649427313.394965,-0.05548095703125,-0.5247802734375,1.2447509765625,1.351990186959779,46.32568359375,10.07080078125,-6.591796875,56.31074539397795,0.012642695786780678,0.0009134074693367255,1
1649427313.4119415,-0.10968017578125,-0.4346923828125,1.1971435546875,1.278334814970021,49.1943359375,15.44189453125,0.8544921875,45.66694278297112,0.011230678326683119,0.0011175088853637091,1
1649427313.4288538,-0.14227294921875,-0.43267822265625,1.18304443359375,1.2676932469243216,32.8369140625,16.78466796875,-2.50244140625,37.78229003181541,0.00909289627452381,0.0012899511720715282,1
1649427313.4456518,-0.1962890625,-0.37481689453125,1.12261962890625,1.1997049352606606,22.3388671875,26.123046875,2.62451171875,38.09816213189977,0.006227193516679108,0.0014196255656699144,1
1649427313.462339,-0.2178955078125,-0.37646484375,1.13653564453125,1.2169295387139893,23.62060546875,35.400390625,11.8408203125,37.00160389078726,0.0027624263166217133,0.0014948261940175758,1
1649427313.479039,-0.2772216796875,-0.36474609375,1.19329833984375,1.2782223986726615,39.1845703125,21.8505859375,33.447265625,45.768920292707456,-0.001364490672131069,0.0015064783708195577,1
1649427313.4956903,-0.29534912109375,-0.32171630859375,1.1927490234375,1.270190032812866,52.3681640625,7.62939453125,28.80859375,53.27547584636238,-0.006140892131952569,0.0014438682598375968,1
1649427313.512793,-0.336181640625,-0.24114990234375,1.058349609375,1.1363429352787529,50.1708984375,5.18798828125,41.6259765625,71.5330729304356,-0.011404396303987596,0.0012976367466951593,1
1649427313.5295076,-0.32098388671875,-0.26129150390625,0.91387939453125,1.003234495666626,62.19482421875,4.5166015625,54.26025390625,75.59417857111302,-0.017029303562594578,0.0010542628658176088,1
1649427313.5462303,-0.3017578125,-0.2625732421875,0.84576416015625,0.9355851107849289,56.5185546875,17.76123046875,63.78173828125,88.21134331312275,-0.022238633944652975,0.0007257805108478003,1
1649427313.5628896,-0.24371337890625,-0.3021240234375,0.77471923828125,0.8665246879108781,45.0439453125,25.2685546875,64.39208984375,85.34220943226802,-0.026785003174154554,0.0003171804622538422,1
1649427313.5796137,-0.2017822265625,-0.24371337890625,0.867919921875,0.9237950361427191,24.71923828125,13.12255859375,68.90869140625,74.76966077700574,-0.030495710474497173,-0.00015993302595046933,1
1649427313.5962987,-0.22393798828125,-0.17120361328125,0.932373046875,0.9740525644619904,4.45556640625,-3.60107421875,89.599609375,90.94060089618569,-0.0340591079875594,-0.0007002749489862462,1
1649427313.6131606,-0.24261474609375,-0.17266845703125,1.0008544921875,1.0442155072625505,-0.3662109375,-25.32958984375,104.736328125,109.10825900714786,-0.03795121503935661,-0.0013010042243825435,1
1649427313.6298285,-0.17193603515625,-0.33453369140625,0.88641357421875,0.9629142305680204,17.9443359375,-10.498046875,110.83984375,106.72916397845799,-0.041446967035881244,-0.001970539456406519,1
1649427313.6465247,-0.10711669921875,-0.42059326171875,0.78717041015625,0.8680243900055605,21.30126953125,5.55419921875,107.36083984375,104.04854474702111,-0.04377559777640272,-0.0026817021140756684,1
1649427313.6632295,-0.03717041015625,-0.49090576171875,0.659912109375,0.8233189530064348,7.080078125,21.91162109375,89.66064453125,103.49944726017772,-0.0449773183936486,-0.003420896416770085,1
1649427313.6798515,-0.1131591796875,-0.3240966796875,0.818115234375,0.8872182338345347,-18.73779296875,14.22119140625,100.28076171875,108.93272488579575,-0.046232483073254116,-0.004182445233301012,1
1649427313.6964946,-0.13055419921875,-0.32666015625,0.95306396484375,1.0159144539274023,-31.982421875,-7.4462890625,95.88623046875,116.87317655538278,-0.0482583417033311,-0.004967896789944413,1
1649427313.7131789,-0.0322265625,-0.4288330078125,1.0330810546875,1.11901419359824,-25.20751953125,-20.20263671875,97.16796875,97.61271460010427,-0.04961387650837423,-0.005782914466676795,1
1649427313.7298617,0.10638427734375,-0.5255126953125,0.92816162109375,1.0718979439629215,-4.150390625,-0.1220703125,88.7451171875,82.94096105981855,-0.048995389493939,-0.006605315854223792,1
1649427313.746826,0.2237548828125,-0.623291015625,0.9254150390625,1.1379591083445522,-5.859375,8.4228515625,78.9794921875,83.26061125449837,-0.04622195714910049,-0.007405217534607669,1
1649427313.763686,0.20196533203125,-0.6258544921875,0.94427490234375,1.1507123584675996,-21.05712890625,-20.56884765625,85.38818359375,96.3049668491917,-0.04262308552279137,-0.008156278658936585,1
1649427313.7805684,0.31622314453125,-0.5701904296875,1.03985595703125,1.227360833095885,-28.076171875,-38.63525390625,95.52001953125,105.91944014511861,-0.038251789432251826,-0.00883851695774834,1
1649427313.7974453,0.48687744140625,-0.50518798828125,1.1876220703125,1.379387809264422,-34.36279296875,-73.73046875,101.07421875,132.7110913148284,-0.03146881941938773,-0.009427375697736985,1
1649427313.8144343,0.5830078125,-0.51324462890625,1.12701416015625,1.368750918074522,-43.64013671875,-106.0791015625,86.7919921875,142.42133573094156,-0.02244700397568522,-0.00988202128369085,1
1649427313.831318,0.8118896484375,-0.54840087890625,0.7950439453125,1.2617460918121286,-42.48046875,-118.83544921875,64.63623046875,146.02307481778362,-0.010589239500404801,-0.01016285625920526,1
1649427313.8483517,1.025390625,-0.4801025390625,0.30303955078125,1.172073952952565,-23.86474609375,-90.39306640625,69.7021484375,120.03809177789482,0.00503746196773136,-0.010210075884452708,1
1649427313.8650115,1.16400146484375,-0.4573974609375,0.21002197265625,1.2681565662128989,9.33837890625,-46.69189453125,96.19140625,105.65437653264686,0.023443935097020585,-0.009970629477302134,1
1649427313.8825047,1.26580810546875,-0.2633056640625,0.15765380859375,1.3024802324649287,-8.60595703125,-34.66796875,118.22509765625,121.72278717064334,0.04453348952665692,-0.009380618797410388,1
1649427313.8998692,1.2901611328125,-0.11920166015625,0.30999755859375,1.3322249324862994,-17.08984375,-40.283203125,126.8310546875,132.2124755432692,0.06685394204396289,-0.008407908390665221,1
1649427313.9165287,1.365234375,-0.24444580078125,0.380859375,1.4382880489410381,-11.53564453125,-25.390625,124.81689453125,125.1296920315838,0.08906483581813518,-0.007103735282627276,1
1649427313.9335544,1.3114013671875,-0.24169921875,0.3837890625,1.387618860746795,-7.01904296875,-4.21142578125,116.39404296875,117.36706645547724,0.11145115867839195,-0.005426698799591968,1
1649427313.9503434,1.27587890625,-0.33123779296875,0.402099609375,1.3781398894031158,-16.05224609375,7.080078125,103.271484375,103.6463218306846,0.13350220733263995,-0.0033389935566054407,1
1649427313.967008,1.1568603515625,-0.39276123046875,0.43524169921875,1.296928137529394,-20.44677734375,31.55517578125,90.02685546875,96.55663336675826,0.15378400530607905,-0.0009438824050173045,1
1649427313.9839592,1.09478759765625,-0.4302978515625,0.501708984375,1.2788385472935355,-21.78955078125,34.36279296875,72.021484375,85.32044653161122,0.1725654358669999,0.0017782613342445025,1
1649427314.0006611,0.888427734375,-0.427001953125,0.78826904296875,1.2621420646195616,-16.29638671875,30.8837890625,60.85205078125,73.71093794474478,0.18939270142436726,0.0048494183581333705,1
1649427314.0176613,0.70697021484375,-0.39276123046875,1.01605224609375,1.29862636490551,-16.11328125,19.83642578125,46.142578125,43.1349315126255,0.20269642022321932,0.008118974659771298,1
1649427314.0344384,0.60809326171875,-0.388916015625,1.040771484375,1.2665853168442758,-4.5166015625,12.39013671875,30.21240234375,32.96486131053086,0.2138816447550198,0.011662164228068253,1
1649427314.0512397,0.558837890625,-0.38671875,1.00140380859375,1.2102316999094966,-2.197265625,5.4931640625,19.287109375,17.876320996856705,0.2236845192455803,0.015337964791279489,1
1649427314.0681915,0.51654052734375,-0.37884521484375,0.94134521484375,1.1386257623590783,-11.1083984375,3.84521484375,7.6904296875,18.46966588545813,0.23270586462604115,0.019166621952731513,1
1649427314.0852354,0.50628662109375,-0.38671875,0.94281005859375,1.1378788779503903,-6.8359375,3.90625,-3.35693359375,23.21848261539326,0.24141279953619232,0.023202612153866306,1
1649427314.1019466,0.49200439453125,-0.37408447265625,1.0008544921875,1.1763151072108464,-6.2255859375,-6.4697265625,-14.34326171875,22.147184871391325,0.2498875426754239,0.027373384142486565,1
1649427314.1186037,0.4698486328125,-0.3607177734375,1.00653076171875,1.1678952111022676,-9.27734375,-9.46044921875,-22.03369140625,26.48574172912983,0.25790595813305117,0.03160656648990791,1
1649427314.135296,0.47186279296875,-0.3878173828125,0.927978515625,1.1109459677506306,-8.11767578125,1.220703125,-17.2119140625,24.92185837795935,0.26575320908159483,0.035970201446582264,1
1649427314.1519995,0.48486328125,-0.391845703125,0.91571044921875,1.0834643482647952,1.64794921875,4.33349609375,-21.30126953125,24.026541780704868,0.2737563702830812,0.04048328230614538,1
1649427314.1686864,0.46417236328125,-0.40283203125,0.87908935546875,1.072626553434868,1.40380859375,13.18359375,-5.06591796875,16.414826285935888,0,0,0
1649427314.1853518,0.4779052734375,-0.4339599609375,0.93475341796875,1.1359923637421638,0.0,13.48876953125,-16.90673828125,22.72320095889471,0,0,0
1649427314.2019494,0.4632568359375,-0.45538330078125,0.94354248046875,1.1455362321299016,1.708984375,15.13671875,-18.310546875,27.80223389078944,0,0,0
1649427314.2186658,0.46783447265625,-0.47113037109375,1.00396728515625,1.203654115614821,3.173828125,11.8408203125,-24.23095703125,18.82951881662976,0,0,0
1649427314.2354796,0.478271484375,-0.457763671875,0.94903564453125,1.1571343252386879,5.126953125,11.1083984375,-23.8037109375,24.211193259390978,0,0,0
1649427314.2522194,0.5126953125,-0.470947265625,0.87615966796875,1.1190637042788258,6.65283203125,9.94873046875,-37.17041015625,43.22724184860284,0,0,0
1649427314.2688174,0.533203125,-0.462158203125,0.86260986328125,1.1144467476984223,4.2724609375,20.44677734375,-44.49462890625,53.07528890736848,0,0,0
1649427314.285499,0.5723876953125,-0.43157958984375,0.79376220703125,1.0695546070332154,-10.986328125,22.94921875,-50.84228515625,57.1828082510377,0,0,0
1649427314.3021472,0.574951171875,-0.374267578125,0.76959228515625,1.0309788336566408,-10.43701171875,22.52197265625,-51.45263671875,63.576809878656604,0,0,0
1649427314.3187466,0.55224609375,-0.34039306640625,0.77984619140625,1.0143979840133837,-16.9677734375,33.5693359375,-52.490234375,58.77305253224909,0,0,0
1649427314.3354394,0.4874267578125,-0.30230712890625,0.8272705078125,1.006653335322293,-14.46533203125,37.9638671875,-54.50439453125,57.6134373365757,0,0,0
1649427314.3523679,0.4859619140625,-0.312744140625,0.87030029296875,1.0446963574915205,-1.64794921875,38.57421875,-44.98291015625,63.791929462056835,0,0,0
1649427314.3691902,0.50537109375,-0.3167724609375,0.87506103515625,1.0589978987964042,-8.23974609375,31.8603515625,-65.185546875,77.90429411451603,0,0,0
1649427314.3860364,0.48101806640625,-0.33306884765625,0.83056640625,1.0159496998765785,-10.31494140625,33.0810546875,-70.86181640625,82.98496605115484,0,0,0
1649427314.40286,0.41766357421875,-0.29205322265625,0.77984619140625,0.9316104488164116,-22.216796875,30.21240234375,-90.087890625,95.39461038498017,0,0,0
1649427314.4198174,0.3731689453125,-0.4248046875,0.76629638671875,0.8933524981769048,-17.2119140625,28.86962890625,-61.95068359375,74.52517546684598,0,0,0
1649427314.436678,0.3321533203125,-0.09063720703125,0.753662109375,0.828581623378541,-9.8876953125,41.80908203125,-57.6171875,78.81078137997723,0,0,0
1649427314.4535952,0.31915283203125,-0.3409423828125,0.7921142578125,0.9195353370160825,-2.685546875,46.69189453125,-58.837890625,76.8573435999431,0,0,0
1649427314.4702303,0.3189697265625,-0.362548828125,0.83807373046875,0.9672388107080763,-1.3427734375,50.9033203125,-60.05859375,78.54752722781073,0,0,0
1649427314.486846,0.318603515625,-0.38616943359375,0.875244140625,1.0083091476869195,-3.47900390625,47.119140625,-69.88525390625,78.76889009827224,0,0,0
1649427314.5034983,0.2962646484375,-0.37353515625,0.92376708984375,1.0395416735979843,-14.0380859375,29.78515625,-75.50048828125,77.71913484478848,0,0,0
1649427314.520098,0.22833251953125,-0.3101806640625,0.91900634765625,0.9964539381558097,-12.451171875,31.31103515625,-72.57080078125,81.94057812208392,0,0,0
1649427314.5367038,0.1787109375,-0.275390625,0.8895263671875,0.9481744319700941,-24.2919921875,47.18017578125,-63.232421875,79.51187339923224,0,0,0
1649427314.5536067,0.10125732421875,-0.27410888671875,0.8594970703125,0.9078127237276993,-16.2353515625,61.46240234375,-56.0302734375,87.28242884822187,0,0,0
1649427314.570579,0.09503173828125,-0.33563232421875,0.93878173828125,1.0014945034654965,-11.474609375,62.56103515625,-46.56982421875,84.21721451727286,0,0,0
1649427314.587448,0.0985107421875,-0.36456298828125,0.98858642578125,1.0582597318191003,-1.3427734375,65.7958984375,-65.97900390625,88.3973876850331,0,0,0
1649427314.6043272,0.1109619140625,-0.43670654296875,1.04058837890625,1.1339529643503155,-13.97705078125,62.6220703125,-73.18115234375,90.46853551361538,0,0,0
1649427314.6213715,0.136962890625,-0.440185546875,1.02520751953125,1.1240874553118263,-28.01513671875,39.6728515625,-83.92333984375,91.17036443928286,0,0,0
1649427314.6382785,0.15472412109375,-0.43304443359375,0.97760009765625,1.0213945724954203,-32.2265625,22.216796875,-91.61376953125,104.3010103641721,0,0,0
1649427314.655251,0.0963134765625,-0.3870849609375,0.8843994140625,0.9701924429439936,-38.39111328125,22.15576171875,-87.46337890625,95.6191648311083,0,0,0
1649427314.671933,0.08404541015625,-0.3709716796875,0.83660888671875,0.9190201561637719,-33.38623046875,23.4375,-76.7822265625,84.74779249090115,0,0,0
1649427314.6885986,0.0948486328125,-0.34259033203125,0.8525390625,0.923681358389386,-27.587890625,34.60693359375,-61.95068359375,64.01330989965176,0,0,0
1649427314.705948,0.10638427734375,-0.3431396484375,0.853271484375,0.9258156721741531,-18.12744140625,34.3017578125,-55.2978515625,61.83162580194872,0,0,0
1649427314.7225797,0.11627197265625,-0.311279296875,0.90399169921875,0.9631276989811751,-2.197265625,24.23095703125,-46.56982421875,48.13491849126242,0,0,0
1649427314.7392495,0.0640869140625,-0.3636474609375,0.7811279296875,0.8640066266749491,-0.732421875,29.9072265625,-24.59716796875,41.57627752156879,0,0,0
1649427314.7562308,0.05181884765625,-0.35833740234375,0.7364501953125,0.8206398583219728,-10.009765625,39.36767578125,-29.78515625,52.75987079434629,0,0,0
1649427314.7729707,0.05364990234375,-0.35943603515625,0.7672119140625,0.8489326807643723,-16.29638671875,34.36279296875,-36.9873046875,47.10890110214017,0,0,0
1649427314.789601,0.05035400390625,-0.3336181640625,0.7803955078125,0.8502080649557222,-25.146484375,27.03857421875,-39.0625,47.55332024571738,0,0,0
1649427314.806268,0.06939697265625,-0.312744140625,0.79888916015625,0.8952832684063904,-10.1318359375,24.2919921875,-34.423828125,42.10514578167655,0,0,0
1649427314.8229573,0.0040283203125,-0.30047607421875,0.875244140625,0.9253941885709283,-8.9111328125,21.3623046875,-30.45654296875,39.41387452457846,0,0,0
1649427314.8396304,0.00750732421875,-0.29461669921875,0.9429931640625,0.9879734140370792,-3.5400390625,17.15087890625,-22.15576171875,26.160810038904224,0,0,0
1649427314.85632,0.05145263671875,-0.311279296875,0.96258544921875,1.0129723202220131,-11.3525390625,11.41357421875,-15.56396484375,21.9646863258415,0,0,0
1649427314.8732975,0.13348388671875,-0.3812255859375,0.936767578125,1.0201393977359723,3.11279296875,15.80810546875,-5.4931640625,21.813729172315703,0,0,0
1649427314.890013,0.1336669921875,-0.456298828125,0.9107666015625,1.0274099901550535,12.0849609375,20.93505859375,-5.7373046875,28.000372692591004,0,0,0
1649427314.9066374,0.134765625,-0.54547119140625,0.9012451171875,1.0620467765546417,27.28271484375,30.1513671875,-0.732421875,36.50142189744397,0,0,0
1649427314.9233756,0.16937255859375,-0.57366943359375,0.96221923828125,1.132982588199358,35.09521484375,15.9912109375,1.89208984375,44.18308781255,0,0,0
1649427314.940022,0.1761474609375,-0.59893798828125,0.98822021484375,1.1689028337834357,35.21728515625,18.6767578125,-2.01416015625,34.22031712536149,0,0,0
1649427314.9567404,0.18218994140625,-0.62127685546875,1.0001220703125,1.191395090394833,37.17041015625,14.22119140625,-14.70947265625,42.295293495872656,0,0,0
1649427314.9733682,0.15435791015625,-0.5987548828125,0.98822021484375,1.1657242243109829,32.958984375,14.892578125,-23.62060546875,36.944474705864565,0,0,0
1649427314.9899948,0.1534423828125,-0.52752685546875,1.012939453125,1.1523347967414241,40.46630859375,16.11328125,-24.59716796875,54.677212973777884,0,0,0
1649427315.0067582,0.1142578125,-0.4537353515625,1.03143310546875,1.132600930615784,37.2314453125,3.5400390625,-29.35791015625,48.6254491172388,0,0,0
1649427315.0237246,0.10015869140625,-0.43414306640625,0.9759521484375,1.07284414600286,31.79931640625,3.0517578125,-33.447265625,37.36244045174972,0,0,0
1649427315.0404215,0.09722900390625,-0.44403076171875,0.9415283203125,1.0455105807707603,30.09033203125,10.25390625,-30.94482421875,45.647319729745334,0,0,0
1649427315.0579295,0.11151123046875,-0.4189453125,0.986572265625,1.0776245935792403,36.9873046875,8.4228515625,-44.3115234375,58.38311801392996,0,0,0
1649427315.0748303,0.08935546875,-0.31732177734375,0.96990966796875,1.0244033747461883,23.681640625,0.9765625,-37.7197265625,42.63584179747441,0,0,0
1649427315.0917351,0.07965087890625,-0.26641845703125,0.984375,1.0228964744207745,11.90185546875,-16.54052734375,-37.2314453125,50.23845940770317,0,0,0
1649427315.1092048,0.06591796875,-0.2193603515625,0.93182373046875,0.9595621955383857,13.3056640625,-20.01953125,-39.6728515625,51.359660536317875,0,0,0
1649427315.1258707,0.01116943359375,-0.2083740234375,0.80731201171875,0.8338448141924923,6.28662109375,-10.92529296875,-34.48486328125,30.75427010591197,0,0,0
1649427315.1425033,0.00238037109375,-0.21148681640625,0.78240966796875,0.8104919667776878,-2.685546875,-0.48828125,-23.74267578125,27.27411121682557,0,0,0
1649427315.1591656,-0.0062255859375,-0.211669921875,0.78570556640625,0.8137420665226789,-4.638671875,10.19287109375,-26.0009765625,21.93617441242491,0,0,0
1649427315.1758218,-0.01849365234375,-0.2669677734375,0.88421630859375,0.9238248143529949,2.25830078125,10.31494140625,-24.2919921875,20.193875997723467,0,0,0
1649427315.1924582,-0.00201416015625,-0.31915283203125,0.93658447265625,0.9894711018799327,21.484375,18.798828125,-14.09912109375,26.920378875340617,0,0,0
1649427315.209083,-0.06719970703125,-0.3702392578125,0.9671630859375,1.0377848252170507,28.74755859375,7.14111328125,-5.37109375,30.604733943334306,0,0,0
1649427315.2257478,-0.03643798828125,-0.385986328125,0.966064453125,1.0409580683587163,4.45556640625,-9.27734375,-6.2255859375,9.636792093345019,0,0,0
1649427315.2423387,-0.05474853515625,-0.40521240234375,0.947021484375,1.0444839754298587,-18.00537109375,-3.173828125,-8.1787109375,21.816205302980457,0,0,0
1649427315.2592194,-0.0703125,-0.4903564453125,0.95892333984375,1.0793179618689077,-26.42822265625,-21.54541015625,-14.0380859375,35.26569919468516,0,0,0
1649427315.277136,-0.05694580078125,-0.55352783203125,1.0081787109375,1.1515468719281177,-19.1650390625,-17.88330078125,-29.9072265625,40.73898939270171,0,0,0
1649427315.2939281,-0.11773681640625,-0.41656494140625,1.00341796875,1.0928110213374715,-19.1650390625,-27.587890625,-15.625,39.237963464873246,0,0,0
1649427315.3107285,-0.13238525390625,-0.3468017578125,0.97503662109375,1.043309027636385,-23.193359375,-24.2919921875,-5.79833984375,37.37290820197461,0,0,0
1649427315.327517,-0.10711669921875,-0.37042236328125,0.92413330078125,1.001353619898203,-16.41845703125,-14.95361328125,6.103515625,29.615701890221512,0,0,0
1649427315.3443668,-0.06610107421875,-0.46966552734375,0.85894775390625,0.9811963633893815,-5.43212890625,-3.173828125,2.9296875,7.498386924844947,0,0,0
1649427315.3612936,-0.0377197265625,-0.48394775390625,0.857666015625,0.9896482166134196,-4.08935546875,1.3427734375,-8.11767578125,10.568250964004717,0,0,0
1649427315.3779128,-0.0146484375,-0.40338134765625,0.88824462890625,0.9756585515122417,-11.3525390625,4.5166015625,-9.521484375,13.377424840286468,0,0,0
1649427315.3945043,0.0238037109375,-0.37005615234375,0.933837890625,1.0047693160665319,-19.53125,3.35693359375,5.31005859375,21.450102085368556,0,0,0
1649427315.411204,0.0435791015625,-0.3841552734375,0.96588134765625,1.0507660283258922,-18.06640625,3.0517578125,4.0283203125,20.69352845234947,0,0,0
1649427315.427815,0.06060791015625,-0.33380126953125,0.9752197265625,1.0325454572999775,-19.04296875,-0.8544921875,8.1787109375,21.693168778740066,0,0,0
1649427315.4444087,0.1043701171875,-0.33709716796875,0.94903564453125,1.0125197660318188,-10.80322265625,1.220703125,5.67626953125,16.17731030663775,0,0,0
1649427315.4613118,0.1201171875,-0.35430908203125,0.9591064453125,1.0294893092124449,2.3193359375,7.080078125,11.3525390625,9.306410379353634,0,0,0
1649427315.4781675,0.15289306640625,-0.4068603515625,1.00103759765625,1.0913239241169705,14.09912109375,9.46044921875,2.50244140625,12.73881355116321,0,0,0
1649427315.4949663,0.15875244140625,-0.40850830078125,0.9708251953125,1.0651680286758436,15.31982421875,10.6201171875,-3.41796875,14.866790958634798,0,0,0
1649427315.5121238,0.1746826171875,-0.39349365234375,0.949951171875,1.0429566146916105,0.6103515625,1.03759765625,-6.2255859375,9.923798382179031,0,0,0
1649427315.5289862,0.17486572265625,-0.387451171875,0.92926025390625,1.021871347595827,-2.9296875,-0.244140625,-10.92529296875,10.665271397073592,0,0,0
1649427315.545788,0.15399169921875,-0.346435546875,0.86370849609375,0.9432515029361923,-6.28662109375,7.8125,-10.55908203125,12.314740872632523,0,0,0
1649427315.5627048,0.163330078125,-0.35430908203125,0.89996337890625,0.9808902708267119,0.91552734375,7.14111328125,-15.93017578125,6.755078153941669,0,0,0
1649427315.5793397,0.16552734375,-0.352294921875,0.9041748046875,0.9768994055388293,2.50244140625,9.1552734375,-3.41796875,11.966315577164053,0,0,0
1649427315.596593,0.16973876953125,-0.3782958984375,0.89373779296875,0.9852341240726847,0.6103515625,7.9345703125,-12.26806640625,8.595778485960047,0,0,0
1649427315.6132815,0.1724853515625,-0.387451171875,0.93768310546875,1.0291351774050235,4.638671875,-0.8544921875,-16.54052734375,9.490917733117756,0,0,0
1649427315.6299334,0.17156982421875,-0.33013916015625,0.9744873046875,1.0430980666496488,0.54931640625,-2.50244140625,-17.02880859375,16.978418318126142,0,0,0
1649427315.6468484,0.173583984375,-0.3453369140625,0.970458984375,1.0445954356591203,-0.06103515625,-8.056640625,-6.9580078125,22.73008548605536,0,0,0
1649427315.6635013,0.17742919921875,-0.37628173828125,0.97027587890625,1.0557008802149697,-2.44140625,-15.93017578125,-17.88330078125,23.32229912505249,0,0,0
1649427315.6801155,0.16754150390625,-0.3826904296875,0.96405029296875,1.0506736352829569,2.62451171875,-20.3857421875,-25.0244140625,14.86165322248869,0,0,0
1649427315.6967177,0.153076171875,-0.3819580078125,0.95562744140625,1.0404556890596803,6.9580078125,-17.7001953125,-12.63427734375,24.46169974041961,0,0,0
1649427315.7142365,0.12030029296875,-0.3519287109375,0.917724609375,0.9902244375508988,7.080078125,-3.72314453125,-16.78466796875,15.053056423671718,0,0,0
1649427315.731696,0.1171875,-0.344970703125,0.88897705078125,0.960738202106347,3.0517578125,-15.2587890625,-21.05712890625,31.22889282754585,0,0,0
1649427315.748329,0.110595703125,-0.35009765625,0.8924560546875,0.9731826047440425,8.9111328125,-1.89208984375,-17.333984375,21.493476327061742,0,0,0
1649427315.7649374,0.11590576171875,-0.33251953125,0.9345703125,0.9987116967717315,14.16015625,4.94384765625,-18.6767578125,19.66374280849289,0,0,0
1649427315.7815042,0.0985107421875,-0.3365478515625,0.95379638671875,1.0162166944286095,10.009765625,5.9814453125,-21.05712890625,29.00127052121924,0,0,0
1649427315.7981498,0.068115234375,-0.31842041015625,0.93621826171875,0.9912294771311604,-2.99072265625,9.21630859375,-15.5029296875,19.60359526182203,0,0,1
1649427315.8148856,0.0260009765625,-0.34405517578125,0.9210205078125,0.983528744153045,-1.40380859375,8.36181640625,-18.4326171875,29.409889948573177,0.0007805088098393753,6.472785040628412e-06,1
1649427315.8315766,-0.076171875,-0.39605712890625,0.86041259765625,0.9502490421484536,-8.544921875,25.2685546875,-21.484375,38.849488258796306,0.0003596763272071257,1.6036978212298145e-05,1
1649427315.8482604,-0.11187744140625,-0.53558349609375,0.75604248046875,0.9332558467306556,-7.568359375,63.1103515625,-35.70556640625,70.70840531332219,-0.0012081620006938465,8.962712251404069e-06,1
1649427315.8650372,-0.191162109375,-0.574951171875,0.715576171875,0.9376358887416878,-1.0986328125,99.91455078125,-48.33984375,105.23319430634086,-0.003735620564839337,-3.2270207848684486e-05,1
1649427315.8818908,-0.36273193359375,-0.528076171875,0.8697509765625,1.0802340765696283,35.888671875,108.642578125,-41.748046875,120.15397973762003,-0.00840329889615532,-0.00013456517211655507,1
1649427315.8987808,-0.61431884765625,-0.42132568359375,1.20135498046875,1.413561730996745,10.19287109375,85.5712890625,-24.47509765625,79.3661942065461,-0.016631920807412826,-0.00034540923606824793,1
1649427315.9159849,-0.69287109375,-0.47515869140625,1.3663330078125,1.603967587830619,-28.38134765625,26.85546875,-33.50830078125,48.615335288511446,-0.02772555626143003,-0.0007218546665863973,1
1649427315.9328992,-0.744873046875,-0.48284912109375,1.52783203125,1.7669889205694964,-5.55419921875,-11.16943359375,-2.25830078125,23.797763179201823,-0.04006838409259217,-0.0013038559491108529,1
1649427315.9497545,-0.72454833984375,-0.532470703125,1.35498046875,1.626181852423257,15.56396484375,-42.17529296875,9.3994140625,45.57221730013503,-0.05246069232816808,-0.002084196323984334,1
1649427315.966775,-0.69854736328125,-0.55517578125,1.17901611328125,1.4786032470580335,32.71484375,-26.7333984375,33.0810546875,62.4425445156975,-0.06456885254010558,-0.003079921682218179,1
1649427315.9834337,-0.5723876953125,-0.59674072265625,0.94720458984375,1.2573478829832758,52.42919921875,-19.22607421875,49.072265625,73.6709506076978,-0.07524481199652655,-0.004254368011284191,1
1649427316.0000668,-0.47076416015625,-0.6053466796875,0.9404296875,1.213454364295439,53.22265625,-22.64404296875,63.17138671875,91.47160304930507,-0.08392517614265671,-0.005578866885479713,1
1649427316.0170379,-0.42352294921875,-0.5255126953125,0.91351318359375,1.1357999903368308,45.7763671875,-33.8134765625,71.044921875,87.64248894640663,-0.09139120735198958,-0.007042510470360609,1
1649427316.0337162,-0.4273681640625,-0.4727783203125,0.8470458984375,1.06002341571847,28.1982421875,-42.41943359375,85.0830078125,104.84317407009252,-0.09859597182366997,-0.008651192071606957,1
1649427316.0504463,-0.3797607421875,-0.4932861328125,0.6932373046875,0.9317335406339636,35.94970703125,-39.85595703125,100.2197265625,115.58824290006619,-0.10532175097614527,-0.010350431881019041,1
1649427316.0675685,-0.346435546875,-0.55023193359375,0.62530517578125,0.9020971853097188,39.97802734375,-26.4892578125,109.31396484375,120.43719579779983,-0.11142177321016788,-0.012171069546799152,1
1649427316.084259,-0.32171630859375,-0.57421875,0.63519287109375,0.9147122714575731,39.6728515625,-22.76611328125,124.3896484375,141.6219893882123,-0.11712582172185648,-0.014122192720448701,1
1649427316.100929,-0.28216552734375,-0.60443115234375,0.69781494140625,0.9653497268837746,32.28759765625,-28.86962890625,127.685546875,137.2505471943021,-0.12215463812754024,-0.016114796952669284,1
1649427316.1176023,-0.29296875,-0.56011962890625,0.73370361328125,0.9684449800089832,0.0,-42.41943359375,136.16943359375,140.2955169000222,-0.12694913323502988,-0.018191402121415342,1
1649427316.134265,-0.26568603515625,-0.53045654296875,0.75128173828125,0.9572865106802153,-28.74755859375,-52.734375,143.4326171875,158.14714265419636,-0.13161144481273368,-0.020349246301041787,1
1649427316.1509335,-0.1827392578125,-0.4515380859375,0.7869873046875,0.9255427041132465,-39.9169921875,-66.71142578125,145.5078125,163.6072267849073,-0.13535040349233896,-0.022575167397587245,1
1649427316.1681976,0.025634765625,-0.55810546875,0.831298828125,1.001597023307929,-16.11328125,-64.51416015625,152.34375,161.27680500264006,-0.13666387849661987,-0.02484931176390519,1
1649427316.1849275,0.1351318359375,-0.531005859375,0.88970947265625,1.0448974980871015,7.4462890625,-74.27978515625,152.28271484375,171.65857473841294,-0.1352794656122569,-0.027191103316018837,1
1649427316.2015808,0.25140380859375,-0.5203857421875,0.83807373046875,1.018023955194221,10.92529296875,-76.416015625,151.06201171875,170.75979876363309,-0.132051196123939,-0.02942379629216433,1
1649427316.218351,0.42425537109375,-0.6632080078125,0.73004150390625,1.0736843479133986,20.44677734375,-76.23291015625,140.7470703125,162.6527824545269,-0.12641619781788904,-0.03157941464357188,1
1649427316.2351115,0.55279541015625,-0.71978759765625,0.60113525390625,1.0885956755005524,1.8310546875,-69.091796875,130.0048828125,146.61828595958016,-0.11821506365959067,-0.033632791840736455,1
1649427316.2517858,0.5943603515625,-0.70330810546875,0.62548828125,1.1131676013559773,-13.18359375,-69.03076171875,98.876953125,125.34566114685809,-0.10863561244332232,-0.035527133531397054,1
1649427316.2684705,0.70440673828125,-0.6134033203125,0.8411865234375,1.2569993052978576,-5.06591796875,-81.6650390625,94.17724609375,129.45110595730915,-0.09779073334357236,-0.03725082115835361,1
1649427316.2851431,0.6976318359375,-0.46673583984375,0.9378662109375,1.2586204957517737,-11.23046875,-101.01318359375,83.8623046875,136.22205974918737,-0.08610725683683995,-0.03878328102601837,1
1649427316.3017552,0.69873046875,-0.4302978515625,0.8902587890625,1.2107605958743153,-15.7470703125,-114.1357421875,83.984375,149.92672103834175,-0.07448040357849095,-0.0401204190714116,1
1649427316.3192866,0.7540283203125,-0.43304443359375,0.69580078125,1.1136538584712632,-14.7705078125,-120.05615234375,63.8427734375,133.94908662753738,-0.06178873556200415,-0.041310900717700376,1
1649427316.3359146,0.87615966796875,-0.47222900390625,0.4156494140625,1.0786196879882635,-16.90673828125,-98.6328125,50.537109375,111.24713360919178,-0.048182860591623466,-0.04222874565234316,1
1649427316.3532286,0.8858642578125,-0.44146728515625,0.33544921875,0.9632835186284214,-41.6259765625,-72.021484375,49.25537109375,102.45610468960075,-0.03309667675785022,-0.0429246488262087,1
1649427316.3699157,0.84796142578125,-0.2874755859375,0.37939453125,0.9724304615063674,-41.259765625,-51.3916015625,71.83837890625,101.7240926039738,-0.018480312413885258,-0.04335944920587331,1
1649427316.3866081,0.88055419921875,-0.17999267578125,0.88751220703125,1.2631116256001085,11.90185546875,-46.2646484375,89.9658203125,96.11295027541173,-0.004080974598764442,-0.043547395203317824,1
1649427316.4035447,0.83880615234375,-0.148681640625,0.87249755859375,1.2194072253438235,42.90771484375,-42.41943359375,103.08837890625,121.80014659116408,0.01025254868727643,-0.043495946088917645,1
1649427316.4203393,0.840087890625,-0.21258544921875,0.69873046875,1.1131776610918378,41.32080078125,-18.798828125,106.01806640625,109.04304333574441,0.024516309676982928,-0.04320055241135369,1
1649427316.4370024,0.94427490234375,-0.4530029296875,0.44110107421875,1.1364140544619694,43.51806640625,12.63427734375,93.93310546875,95.51806950635327,0.039466178095608484,-0.04266449002703042,1
1649427316.4536414,0.9539794921875,-0.5782470703125,0.41986083984375,1.1919436524742304,20.56884765625,9.1552734375,67.626953125,76.684741311792,0.0552636784123024,-0.041876136820792415,1
1649427316.4703493,0.9012451171875,-0.56488037109375,0.5006103515625,1.1755608529518382,-8.1787109375,0.9765625,64.02587890625,56.64736608971162,0.07073050354665611,-0.04082573571547199,1
1649427316.4872618,0.85675048828125,-0.470947265625,0.97320556640625,1.3794715657286796,-1.3427734375,-23.13232421875,40.283203125,48.22341306516634,0.08539344625751255,-0.03952355013284037,1
1649427316.5040143,0.8814697265625,-0.4852294921875,0.935302734375,1.3737640786772884,9.70458984375,-49.25537109375,26.55029296875,54.18667347375564,0.10014590437640436,-0.03794885811380912,1
1649427316.5207043,0.895751953125,-0.529541015625,0.80767822265625,1.3172430907427708,0.30517578125,-51.33056640625,1.220703125,53.37540990194118,0.11497132493241224,-0.03615436987984431,1
1649427316.5373936,0.907470703125,-0.5167236328125,0.53851318359375,1.1749480152931895,3.7841796875,-36.376953125,-9.46044921875,34.89935581970863,0.1300089141150238,-0.03411140963869781,1
1649427316.5540729,0.856201171875,-0.392578125,0.45648193359375,1.0466966067806505,-1.15966796875,-12.0849609375,-9.33837890625,15.826593729794867,0.14472971328359563,-0.031818255104051646,1
1649427316.5707579,0.80364990234375,-0.33380126953125,0.51910400390625,1.0353529167490265,-5.06591796875,-4.8828125,0.9765625,4.338650928356423,0.15861046831560088,-0.029281527070107845,1
1649427316.5873816,0.75018310546875,-0.2669677734375,0.65753173828125,1.0326637742421665,-7.01904296875,4.21142578125,13.24462890625,7.899043436324337,0.17153387290454702,-0.026535679303399888,1
1649427316.604005,0.68865966796875,-0.29937744140625,0.69268798828125,1.0216142323885797,-5.79833984375,9.94873046875,17.88330078125,15.663814019494058,0.1834945443624747,-0.023584433805593344,1
1649427316.6207557,0.65716552734375,-0.30963134765625,0.71923828125,0.9889830295220006,-7.87353515625,7.01904296875,20.1416015625,23.25215166144142,0,0,0
1649427316.6374154,0.6767578125,-0.37261962890625,0.70550537109375,1.0462238542817432,-8.30078125,6.77490234375,12.8173828125,18.142334442686916,0,0,0
1649427316.6540065,0.62457275390625,-0.39642333984375,0.6661376953125,0.9954807976104609,-10.31494140625,22.216796875,-3.90625,27.066253203626722,0,0,0
1649427316.6707437,0.59124755859375,-0.4229736328125,0.7056884765625,1.013151812686912,0.0,35.82763671875,-1.46484375,35.655242146750474,0,0,0
1649427316.6875374,0.5152587890625,-0.4248046875,0.81427001953125,1.0530841879619828,-11.23046875,32.04345703125,-5.126953125,30.959026380682154,0,0,0
1649427316.7044024,0.45355224609375,-0.4171142578125,0.8983154296875,1.089341340086658,-17.4560546875,32.71484375,-2.38037109375,35.00322310048509,0,0,0
1649427316.7212741,0.4991455078125,-0.43048095703125,0.963134765625,1.1670855448901178,-1.3427734375,26.611328125,2.74658203125,17.966950367909373,0,0,0
1649427316.7381043,0.52972412109375,-0.4456787109375,0.970458984375,1.1920687053209702,10.07080078125,13.85498046875,-0.244140625,14.976639438485252,0,0,0
1649427316.7549183,0.5372314453125,-0.48394775390625,0.8551025390625,1.1198318653505965,0.732421875,13.916015625,-13.00048828125,13.133909062814427,0,0,0
1649427316.7718122,0.48468017578125,-0.5068359375,0.68389892578125,0.9795485087639075,3.2958984375,28.13720703125,-15.19775390625,32.63332401794389,0,0,0
1649427316.7883916,0.465087890625,-0.50628662109375,0.696533203125,0.978668172446673,-1.15966796875,43.88427734375,-25.57373046875,40.31929942016737,0,0,0
1649427316.8049576,0.3896484375,-0.46270751953125,0.84063720703125,1.035661656779015,-3.60107421875,35.58349609375,-26.7333984375,47.99863052401377,0,0,0
1649427316.8216639,0.3548583984375,-0.43853759765625,0.95819091796875,1.1119215542373204,-5.0048828125,27.83203125,-21.484375,38.91641001579287,0,0,0
1649427316.838259,0.3896484375,-0.429931640625,0.98822021484375,1.1459695953569287,-12.6953125,19.775390625,-25.2685546875,37.036724249304896,0,0,0
1649427316.8548577,0.4013671875,-0.4097900390625,0.97320556640625,1.129669230261945,-6.4697265625,17.02880859375,-22.4609375,29.549652602482205,0,0,0
1649427316.8717368,0.358154296875,-0.38800048828125,0.898681640625,1.0423279572538366,3.60107421875,33.935546875,-15.2587890625,33.94723594843761,0,0,0
1649427316.888542,0.35302734375,-0.3724365234375,0.89739990234375,1.0593355595580871,3.173828125,31.1279296875,-15.7470703125,33.61264296373952,0,0,0
1649427316.9053323,0.38031005859375,-0.399169921875,0.97064208984375,1.1162967498714298,-2.9296875,25.146484375,-18.73779296875,32.36624759945584,0,0,0
1649427316.9221768,0.4453125,-0.40576171875,1.0052490234375,1.1719519589903211,-6.34765625,15.19775390625,-5.9814453125,14.263042379124682,0,0,0
1649427316.9389987,0.474609375,-0.3446044921875,0.985107421875,1.1464915819607682,-13.12255859375,-0.8544921875,-6.591796875,16.32196940059339,0,0,0
1649427316.9557908,0.4947509765625,-0.3511962890625,0.94866943359375,1.126095491730566,-7.080078125,-4.0283203125,-5.37109375,11.96507025344571,0,0,0
1649427316.9726958,0.55462646484375,-0.4031982421875,0.7510986328125,1.0170194168357711,14.09912109375,19.95849609375,-7.26318359375,27.09218516335207,0,0,0
1649427316.9893167,0.6240234375,-0.428466796875,0.79998779296875,1.1013489526361073,37.41455078125,50.537109375,-7.2021484375,56.43115278525687,0,0,0
1649427317.0059109,0.62677001953125,-0.40338134765625,0.85821533203125,1.1367016869670268,35.21728515625,37.2314453125,-7.9345703125,45.5862752318436,0,0,0
1649427317.0228434,0.5654296875,-0.28912353515625,0.9547119140625,1.146637688609823,25.32958984375,29.9072265625,-6.77490234375,41.93328452207265,0,0,0
1649427317.0394788,0.506103515625,-0.33966064453125,0.88568115234375,1.0751470716084948,25.32958984375,21.240234375,-20.69091796875,42.3042765110443,0,0,0
1649427317.0560875,0.476806640625,-0.36163330078125,0.80987548828125,1.0069863570559598,23.13232421875,35.64453125,-31.67724609375,53.497062025328766,0,0,0
1649427317.0730183,0.3973388671875,-0.36822509765625,0.7576904296875,0.9314304510599968,14.22119140625,47.7294921875,-31.982421875,58.782812907944766,0,0,0
1649427317.0896695,0.3768310546875,-0.383056640625,0.87982177734375,1.030931808410294,18.4326171875,48.76708984375,-44.37255859375,64.90060772383511,0,0,0
1649427317.1067593,0.37921142578125,-0.38543701171875,0.94317626953125,1.051872390626537,16.9677734375,25.634765625,-64.3310546875,75.15304169974414,0,0,0
1649427317.123416,0.27191162109375,-0.36474609375,0.88934326171875,0.9989529917650078,10.8642578125,18.9208984375,-72.998046875,79.58429703370307,0,0,0
1649427317.1400375,0.15380859375,-0.35595703125,0.85400390625,0.9379153285334049,-5.4931640625,22.94921875,-76.47705078125,77.91593712364865,0,0,0
1649427317.156651,0.15728759765625,-0.3284912109375,0.90472412109375,0.9752802670660973,-21.17919921875,18.4326171875,-75.37841796875,79.69062368965051,0,0,0
1649427317.1733792,0.1446533203125,-0.31768798828125,0.935302734375,0.9983193105940454,-31.31103515625,1.15966796875,-83.6181640625,85.64396056590795,0,0,0
1649427317.1906412,0.2171630859375,-0.26129150390625,0.9261474609375,0.986499962143165,-36.7431640625,-1.5869140625,-88.5009765625,98.67770995513575,0,0,0
1649427317.2072663,0.15216064453125,-0.28912353515625,0.910400390625,0.967250821439592,-23.13232421875,5.43212890625,-83.55712890625,82.21039058014352,0,0,0
1649427317.2239823,0.12176513671875,-0.31494140625,0.89447021484375,0.9560814835219265,-5.4931640625,12.939453125,-85.87646484375,70.28462599214723,0,0,0
1649427317.2410023,0.1358642578125,-0.33416748046875,0.93548583984375,1.0026269286738414,-7.080078125,9.82666015625,-80.38330078125,73.85417841833655,0,0,0
1649427317.2579849,0.161865234375,-0.3424072265625,0.95306396484375,1.0255603268385463,-14.5263671875,-5.615234375,-74.3408203125,76.39848794495641,0,0,0
1649427317.274656,0.17193603515625,-0.34808349609375,0.9228515625,0.9515939242243274,-34.7900390625,-7.38525390625,-73.66943359375,75.3111751724786,0,0,0
1649427317.2912762,0.1739501953125,-0.3109130859375,0.8455810546875,0.9175690369137687,-36.07177734375,-9.27734375,-64.208984375,73.0440384013153,0,0,0
1649427317.3079555,0.1212158203125,-0.34918212890625,0.79705810546875,0.8785915192710241,-23.01025390625,7.2021484375,-43.0908203125,59.30996897274551,0,0,0
1649427317.3245537,0.12542724609375,-0.361083984375,0.79449462890625,0.9119386574473319,-2.197265625,34.97314453125,-23.74267578125,41.087722989049674,0,0,0
1649427317.3412147,0.17138671875,-0.39715576171875,0.8701171875,0.971704701240661,9.70458984375,35.2783203125,-30.57861328125,44.916691688372566,0,0,0
1649427317.357802,0.23785400390625,-0.447509765625,0.95709228515625,1.0829889933926333,19.83642578125,29.6630859375,-36.43798828125,49.7155232848023,0,0,0
1649427317.374694,0.26275634765625,-0.46966552734375,0.968994140625,1.091101535893346,6.89697265625,14.09912109375,-36.31591796875,47.56146682739962,0,0,0
1649427317.391523,0.23602294921875,-0.50921630859375,0.908203125,1.0676333629835326,3.35693359375,7.99560546875,-49.9267578125,53.13260220381003,0,0,0
1649427317.4093144,0.2479248046875,-0.50537109375,0.9140625,1.0734881951300892,-21.54541015625,-1.0986328125,-62.01171875,66.80336190118473,0,0,0
1649427317.4262486,0.220458984375,-0.36639404296875,0.88787841796875,0.9854820361677492,-17.822265625,2.01416015625,-68.17626953125,75.20487340610224,0,0,0
1649427317.4430258,0.2069091796875,-0.28472900390625,0.87359619140625,0.9418345501965326,-28.25927734375,-9.765625,-56.82373046875,63.67455927333468,0,0,0
1649427317.4598303,0.15985107421875,-0.227783203125,0.78680419921875,0.8345647976418797,-18.4326171875,-2.50244140625,-39.24560546875,39.101295279733996,0,0,0
1649427317.476545,0.11187744140625,-0.30706787109375,0.7100830078125,0.7816809562332344,2.38037109375,15.380859375,-24.0478515625,35.62613234477141,0,0,0
1649427317.4931736,0.1051025390625,-0.3380126953125,0.7144775390625,0.8602079581224217,23.193359375,44.12841796875,-12.0849609375,49.46254568177399,0,0,0
1649427317.5097988,0.156005859375,-0.38818359375,0.831298828125,0.9306353057229215,13.671875,35.2783203125,-19.10400390625,54.55126141078357,0,0,0
1649427317.5263946,0.169921875,-0.410888671875,0.91717529296875,1.0192710445759898,8.056640625,32.8369140625,-34.60693359375,42.72818414174433,0,0,0
1649427317.5429857,0.17486572265625,-0.40008544921875,0.9349365234375,1.023540031232963,-14.16015625,13.12255859375,-32.470703125,43.872391280845406,0,0,0
1649427317.5595782,0.1087646484375,-0.4163818359375,0.91204833984375,1.0084819067589446,-31.43310546875,3.90625,-32.2265625,50.21327843854436,0,0,0
1649427317.5764365,0.1263427734375,-0.37738037109375,0.90948486328125,0.992744255800279,-32.04345703125,8.72802734375,-28.9306640625,45.593098304384185,0,0,0
1649427317.5933125,0.12103271484375,-0.32574462890625,0.9356689453125,0.9981156528909488,-18.00537109375,0.1220703125,-24.10888671875,36.64824432992211,0,0,0
1649427317.6101565,0.11663818359375,-0.30523681640625,0.92669677734375,0.9826194060271576,-14.95361328125,3.0517578125,-18.5546875,25.7618252952287,0,0,0
1649427317.6270342,0.08514404296875,-0.34661865234375,0.8646240234375,0.9353976160494062,0.6103515625,12.8173828125,-13.97705078125,14.802881498067471,0,0,0
1649427317.643883,0.0479736328125,-0.41912841796875,0.841552734375,0.9413719269918002,1.03759765625,21.1181640625,-11.65771484375,18.561211493112626,0,0,0
1649427317.660682,0.04119873046875,-0.42572021484375,0.8287353515625,0.9325970832295509,6.9580078125,32.958984375,-8.544921875,33.801024860724034,0,0,0
1649427317.6775942,0.07763671875,-0.44000244140625,0.8990478515625,1.00395052066368,2.8076171875,27.40478515625,-24.47509765625,33.65439994848917,0,0,0
1649427317.694217,0.09906005859375,-0.4273681640625,0.966796875,1.0616744512196357,-15.380859375,16.66259765625,-25.0244140625,25.02471179319837,0,0,0
1649427317.7108083,0.10400390625,-0.416748046875,0.98876953125,1.0780356826273103,-17.9443359375,-3.35693359375,-19.8974609375,33.967257167717165,0,0,0
1649427317.7274508,0.08587646484375,-0.4248046875,0.944091796875,1.0388181316586165,-27.7099609375,-6.89697265625,-26.55029296875,37.111031344742685,0,0,0
1649427317.7440374,0.0311279296875,-0.447509765625,0.8631591796875,0.9727680647591029,-30.82275390625,1.28173828125,-18.00537109375,38.658002812112265,0,0,0
1649427317.7606115,0.03076171875,-0.44915771484375,0.8536376953125,0.9808339905274106,-19.22607421875,10.19287109375,-19.4091796875,34.446438337283844,0,0,0
1649427317.7774687,0.01959228515625,-0.47552490234375,0.86810302734375,0.9900053820409566,1.52587890625,22.216796875,-18.61572265625,35.553174980177396,0,0,0
1649427317.794326,0.0142822265625,-0.47772216796875,0.914794921875,1.0321202453457796,7.2021484375,32.65380859375,-19.83642578125,37.60404656339083,0,0,0
1649427317.8112288,0.043212890625,-0.41473388671875,0.99627685546875,1.080018112557243,-4.2724609375,23.193359375,-10.19287109375,25.960326319298193,0,0,0
1649427317.8281074,0.02801513671875,-0.37811279296875,1.0213623046875,1.0894655063509633,-8.97216796875,7.4462890625,-20.5078125,22.860497578130918,0,0,0
1649427317.8449209,0.02984619140625,-0.3541259765625,0.97412109375,1.036922324818257,-27.34375,-3.35693359375,-16.6015625,33.27849193123174,0,0,0
1649427317.8617227,0.0340576171875,-0.37884521484375,0.9140625,0.990047408968251,-20.20263671875,-4.150390625,-11.71875,21.38017179708267,0,0,0
1649427317.878686,0.0318603515625,-0.3984375,0.906005859375,0.990259632939649,-9.70458984375,10.68115234375,-8.1787109375,17.309359399885263,0,0,0
1649427317.8953254,0.03314208984375,-0.35595703125,0.92596435546875,0.9925793639876774,-3.11279296875,0.06103515625,-3.60107421875,9.437779984520956,0,0,0
1649427317.9119518,0.05291748046875,-0.3687744140625,0.96917724609375,1.0383156372472515,-4.45556640625,7.14111328125,7.87353515625,7.706398506311482,0,0,0
1649427317.9285362,0.06024169921875,-0.3900146484375,0.978515625,1.0550987236698421,-8.7890625,-6.103515625,-3.0517578125,5.884118288571791,0,0,0
1649427317.945153,0.0596923828125,-0.41546630859375,0.97467041015625,1.0612058436403862,-6.65283203125,-10.1318359375,3.72314453125,16.958330120052,0,0,0
1649427317.961741,0.0673828125,-0.45098876953125,0.96551513671875,1.0677784381119275,-7.75146484375,-9.27734375,9.765625,12.345557985808997,0,0,0
1649427317.9786072,0.052001953125,-0.4793701171875,0.95562744140625,1.070384846281854,-7.62939453125,-8.9111328125,-2.50244140625,7.1726047585071235,0,0,0
1649427317.9955046,0.03076171875,-0.528076171875,0.9876708984375,1.120403735384235,-1.3427734375,-4.39453125,1.89208984375,8.92763047709708,0,0,0
1649427318.0127335,0.00201416015625,-0.54547119140625,0.98583984375,1.126686768813903,-2.62451171875,-13.427734375,-2.685546875,10.2113111525381,0,0,0
1649427318.0296128,-0.01116943359375,-0.53558349609375,0.958740234375,1.0982519176146424,-18.37158203125,-14.16015625,-7.01904296875,25.7152927434236,0,0,0
1649427318.0465057,-0.0164794921875,-0.5203857421875,0.9649658203125,1.0964633731712925,-20.69091796875,-24.658203125,-13.916015625,36.439368447087155,0,0,0
1649427318.063567,-0.03607177734375,-0.4647216796875,0.95947265625,1.0667029533959953,-26.2451171875,-30.1513671875,-21.3623046875,53.64740255214993,0,0,0
1649427318.081607,-0.05914306640625,-0.40374755859375,0.94720458984375,1.0313614925890022,-9.94873046875,-33.8134765625,-8.97216796875,36.22229553326077,0,0,0
1649427318.098333,-0.0501708984375,-0.38104248046875,0.957275390625,1.0315457646018669,6.9580078125,-25.20751953125,2.99072265625,32.04537522160435,0,0,0
1649427318.114964,-0.03662109375,-0.35174560546875,0.935302734375,0.9999286376553957,18.37158203125,-26.06201171875,15.19775390625,37.37848980345044,0,0,0
1649427318.1321144,0.002197265625,-0.39404296875,0.9312744140625,1.0112105238203333,23.681640625,-29.78515625,25.81787109375,44.644744867195435,0,0,0
1649427318.148974,0.040283203125,-0.3885498046875,0.91680908203125,0.9965603745241367,12.75634765625,-25.57373046875,27.77099609375,44.225435728791396,0,0,0
1649427318.16564,0.066650390625,-0.42095947265625,0.9151611328125,1.0095390290623496,4.45556640625,-38.87939453125,24.7802734375,52.38775851505167,0,0,0
1649427318.1823518,0.125244140625,-0.48760986328125,0.88458251953125,1.0178092686698763,10.7421875,-28.13720703125,23.0712890625,40.35748655218678,0,0,0
1649427318.1989837,0.15655517578125,-0.533935546875,0.85858154296875,1.023112387378436,21.6064453125,-33.5693359375,1.8310546875,41.093343943051046,0,0,0
1649427318.2157185,0.1827392578125,-0.52569580078125,0.83258056640625,1.0014689764851705,19.10400390625,-29.1748046875,7.75146484375,34.855456502609385,0,0,0
1649427318.2323651,0.1754150390625,-0.49786376953125,0.82562255859375,0.9799445791472363,13.85498046875,-12.26806640625,19.83642578125,23.403540486271663,0,0,0
1649427318.2490096,0.20452880859375,-0.44329833984375,0.9019775390625,1.0256261173674583,11.962890625,-19.04296875,24.4140625,30.21271060054233,0,0,0
1649427318.2655933,0.2149658203125,-0.43524169921875,0.9613037109375,1.076917111621716,14.95361328125,-24.84130859375,25.146484375,42.94312319797093,0,0,0
1649427318.2823591,0.23638916015625,-0.45574951171875,0.97998046875,1.1063223633293897,17.27294921875,-17.9443359375,39.36767578125,38.81787953590028,0,0,0
1649427318.2992067,0.26605224609375,-0.500244140625,0.91314697265625,1.074646635667952,33.0810546875,-12.02392578125,30.3955078125,50.174239666912754,0,0,0
1649427318.3160446,0.27117919921875,-0.49859619140625,0.87506103515625,1.0188928775994988,42.724609375,2.5634765625,36.07177734375,64.56175233347092,0,0,0
1649427318.3328617,0.2677001953125,-0.4896240234375,0.835693359375,1.0048773406744473,44.43359375,10.07080078125,36.0107421875,58.03746964870615,0,0,0
1649427318.3496702,0.2457275390625,-0.4698486328125,0.87982177734375,1.027241997339382,34.72900390625,20.81298828125,30.82275390625,56.8023543095755,0,0,0
1649427318.3665195,0.2230224609375,-0.43707275390625,1.0059814453125,1.1192722093408907,34.5458984375,12.14599609375,35.2783203125,51.70873798603436,0,0,0
1649427318.3834271,0.2259521484375,-0.42791748046875,1.03948974609375,1.1466065915161547,38.75732421875,5.67626953125,35.888671875,44.9018848556691,0,0,0
1649427318.4000697,0.20672607421875,-0.427734375,1.027587890625,1.1320906493199534,45.59326171875,4.21142578125,30.94482421875,53.65958793624102,0,0,0
1649427318.4176593,0.17962646484375,-0.437255859375,0.89813232421875,1.0149384342099803,41.9921875,2.50244140625,33.69140625,52.65257814096081,0,0,0
1649427318.434294,0.1644287109375,-0.41748046875,0.84796142578125,0.9593567232167908,26.55029296875,10.986328125,41.748046875,44.73893606615492,0,0,0
1649427318.4509087,0.15802001953125,-0.37884521484375,0.82269287109375,0.9194115419827735,12.20703125,8.9111328125,43.27392578125,42.777154490993006,0,0,0
1649427318.4675536,0.158203125,-0.39678955078125,0.88714599609375,0.9846309942075375,16.4794921875,13.73291015625,38.4521484375,41.803869214833114,0,0,0
1649427318.4842381,0.15948486328125,-0.38726806640625,0.91754150390625,1.013693439937814,25.146484375,6.65283203125,34.423828125,45.54940480032845,0,0,0
1649427318.5008416,0.12908935546875,-0.30230712890625,0.966064453125,1.0204578332663152,21.05712890625,-2.25830078125,35.0341796875,44.28991205837625,0,0,0
1649427318.5177357,0.1072998046875,-0.26275634765625,0.92230224609375,0.9649847560812574,14.34326171875,-8.4228515625,30.21240234375,37.76823708241035,0,0,0
1649427318.5343733,0.11572265625,-0.25799560546875,0.872314453125,0.8826678841219695,0.6103515625,-23.4375,31.25,32.38741870694722,0,0,0
1649427318.551017,0.16204833984375,-0.268798828125,0.73004150390625,0.7946527995755052,-9.6435546875,-6.40869140625,38.14697265625,35.74821337990572,0,0,0
1649427318.5676198,0.158203125,-0.25927734375,0.69561767578125,0.7590368374467273,-1.28173828125,15.869140625,50.048828125,55.62449605049132,0,0,0
1649427318.5845487,0.18109130859375,-0.2373046875,1.05560302734375,1.0969983263865808,32.77587890625,21.484375,68.78662109375,84.89393464209975,0,0,0
1649427318.6014266,0.19537353515625,-0.17523193359375,1.064208984375,1.0960920632934643,45.22705078125,1.0986328125,83.31298828125,89.82685178981424,0,0,0
1649427318.6183975,0.22796630859375,-0.23236083984375,0.9071044921875,0.9637420596266908,30.2734375,-9.6435546875,81.35986328125,80.90151826526619,0,0,0
