"Time (s)","Linear Acceleration x (m/s^2)","Linear Acceleration y (m/s^2)","Linear Acceleration z (m/s^2)","Absolute acceleration (m/s^2)"
8.054298700E-2,9.610742331E-3,-2.474850416E-2,9.391021729E-2,9.759089987E-2
8.561871600E-2,-2.155005932E-3,-2.656525373E-2,9.423923492E-2,9.793564293E-2
9.067277900E-2,6.397247314E-3,-9.328126907E-5,1.670179367E-1,1.671404339E-1
9.573908100E-2,-1.952078938E-2,4.193475842E-2,1.524324417E-1,1.592960592E-1
1.008083000E-1,-2.506196499E-3,7.467180490E-3,5.671310425E-2,5.725745365E-2
1.058738730E-1,-4.471987486E-3,2.823576331E-2,7.044601440E-2,7.602564007E-2
1.109498620E-1,-1.903831959E-3,2.571684122E-2,6.186676025E-2,6.702593918E-2
1.160059560E-1,-3.240379691E-2,1.713365316E-2,1.138067245E-1,1.195639522E-1
1.210945500E-1,-2.108037472E-2,2.913400531E-2,8.736610413E-2,9.447755614E-2
1.261549660E-1,-1.509389281E-2,1.360488832E-1,1.055927277E-1,1.728784207E-1
1.312042890E-1,-9.581655264E-3,1.628029943E-1,6.886482239E-3,1.632300422E-1
1.362888730E-1,1.351201534E-2,8.989802003E-2,3.790187836E-2,9.849254259E-2
1.413469450E-1,8.296161890E-3,5.319961905E-2,4.920196533E-2,7.293736465E-2
1.464868410E-1,4.628616571E-2,3.682667017E-2,1.932716370E-2,6.222661833E-2
1.514823100E-1,4.171708226E-2,-1.464277506E-3,5.007457733E-2,6.519142855E-2
1.565294980E-1,-5.792319775E-3,-4.699546099E-2,-9.330749512E-3,4.826165360E-2
1.616031950E-1,2.408647537E-2,-8.119943738E-2,7.088661194E-3,8.499268230E-2
1.666638730E-1,3.222322464E-2,-9.341251850E-2,5.249977112E-2,1.118948649E-1
1.717401750E-1,-1.073151827E-3,-7.789376378E-2,3.187847137E-2,8.417141455E-2
1.768097060E-1,-1.012557745E-2,-1.067850590E-1,2.365970612E-2,1.098424227E-1
1.818665810E-1,-1.663422585E-2,-8.866274357E-2,4.341316223E-2,1.001123480E-1
1.869272580E-1,-2.051538229E-2,-2.991890907E-2,3.022480011E-2,4.721822288E-2
1.919918410E-1,-2.659219503E-2,-1.030561328E-2,1.987743378E-2,3.476295263E-2
1.970598100E-1,-4.860767722E-2,-1.927760243E-2,1.222705841E-2,5.370133330E-2
2.021259560E-1,-4.921105504E-2,-2.472430468E-3,2.567863464E-2,5.556287545E-2
2.071947060E-1,-3.137588501E-2,1.623913646E-2,3.640747070E-2,5.073124911E-2
2.122641850E-1,-3.733322024E-2,4.595634341E-2,2.132892609E-2,6.293391710E-2
2.173241330E-1,-8.276045322E-3,4.457995296E-2,2.994537354E-2,5.433774496E-2
2.223959560E-1,-1.030984521E-2,-1.014217734E-2,1.164436340E-3,1.450905171E-2
2.275608520E-1,-2.938270569E-3,6.438553333E-3,1.740169525E-2,1.878582978E-2
2.325331430E-1,1.119548082E-2,-7.217824459E-4,-6.370544434E-3,1.290130215E-2
2.375946020E-1,4.035234451E-3,-5.416336656E-2,-8.523941040E-3,5.497827721E-2
2.426585080E-1,2.960291505E-2,-4.342240095E-2,-1.295852661E-2,5.412726573E-2
2.477240810E-1,1.947680116E-2,-3.989562392E-2,-1.028347015E-2,4.557144226E-2
2.527884040E-1,3.530341387E-2,-3.409767151E-2,4.600429535E-2,6.727092554E-2
2.578578830E-1,3.440830112E-2,-2.856907248E-2,-1.353454590E-2,4.672587100E-2
2.629217370E-1,4.757425189E-2,-1.857432723E-2,2.652359009E-2,5.754837883E-2
2.679890810E-1,3.935539722E-2,-1.764327288E-3,3.291034698E-2,5.133274861E-2
2.730535080E-1,1.736477017E-2,-1.352378726E-2,2.980136871E-2,3.704793708E-2
2.781226230E-1,1.227542758E-2,-1.087036729E-2,1.273727417E-2,2.076268674E-2
2.831890290E-1,1.901453733E-2,2.919256687E-2,-1.598358154E-3,3.487568407E-2
2.882876230E-1,1.858612895E-2,1.689517498E-2,7.812500000E-3,2.630449169E-2
2.933194450E-1,2.051797509E-2,1.429355145E-2,4.281997681E-2,4.958672533E-2
2.983861120E-1,-8.017957211E-3,4.689031839E-2,2.550983429E-2,5.397908153E-2
3.034684040E-1,-3.373590112E-2,1.787754893E-2,2.264976501E-2,4.439290073E-2
3.085394980E-1,-1.434680820E-2,-1.534345746E-2,1.280975342E-2,2.460370653E-2
3.135973100E-1,-4.627943039E-3,-1.743307710E-2,-1.536369324E-3,1.810222264E-2
3.186579350E-1,1.194816828E-2,-2.883788943E-2,5.539894104E-3,3.170288660E-2
3.237246020E-1,-1.174151897E-2,-3.539106250E-2,6.183910370E-2,7.221125479E-2
3.287897060E-1,4.923671484E-3,-5.588874221E-2,3.013038635E-2,6.368386160E-2
3.338446540E-1,6.639957428E-5,-4.786309600E-2,6.063461304E-3,4.824568302E-2
3.389042890E-1,2.352854609E-2,-3.053432703E-2,3.183841705E-2,4.999622395E-2
3.439683520E-1,4.326760769E-3,-2.063116431E-2,4.304313660E-2,4.792783542E-2
3.490384040E-1,1.360484958E-2,-1.385360956E-3,1.876449585E-2,2.321890311E-2
3.541058520E-1,-5.426049232E-3,3.404378891E-3,3.257656097E-2,3.320036341E-2
3.591623620E-1,-1.011073589E-2,3.402647376E-2,1.790618896E-2,3.975750873E-2
3.642331950E-1,8.887380362E-3,4.048642516E-2,-1.301956177E-2,4.344703834E-2
3.693098100E-1,-7.525384426E-4,4.915824533E-2,-2.695274353E-2,5.606736824E-2
3.743701750E-1,-1.972076297E-2,6.247195601E-2,3.005790710E-2,7.207726105E-2
3.794368410E-1,-2.188885212E-2,4.965671897E-2,4.609775543E-2,7.120333308E-2
3.845191330E-1,1.145625114E-2,5.366680026E-2,3.595638275E-2,6.560665059E-2
3.895560600E-1,4.246145487E-3,6.465682387E-2,3.541088104E-2,7.384080932E-2
3.946214770E-1,-5.320459604E-3,2.363270521E-2,-3.826427460E-2,4.528760047E-2
3.997167890E-1,6.494462490E-3,-3.325253725E-2,2.839469910E-2,4.420597486E-2
4.047831950E-1,2.039512992E-2,-2.091228962E-2,6.104373932E-2,6.767291402E-2
4.098501230E-1,1.149207354E-3,-3.939545155E-2,-1.774311066E-2,4.322198811E-2
4.148933000E-1,-1.767084002E-2,-3.873273730E-2,5.099868774E-2,6.643304658E-2
4.199715810E-1,-1.014670730E-2,-5.000314116E-2,1.012420654E-2,5.201701023E-2
4.250811640E-1,8.928239346E-3,-2.563855052E-2,6.669139862E-2,7.200549549E-2
4.301092370E-1,2.307400107E-2,-1.578542590E-2,-1.455688477E-2,3.151970956E-2
4.351678830E-1,-1.265051961E-2,5.596637726E-3,4.539489746E-3,1.455901670E-2
4.402344450E-1,-1.722952724E-2,1.266729832E-2,-2.460479736E-4,2.138638808E-2
4.453003310E-1,-5.097895861E-3,-1.576581597E-2,2.340221405E-2,2.867425880E-2
4.503713200E-1,4.463255405E-3,2.469226718E-2,3.019714355E-2,3.926189229E-2
4.554359040E-1,-1.694181561E-2,3.384763002E-2,2.272319794E-2,4.414783006E-2
4.605006950E-1,-1.838803291E-4,1.923623681E-2,1.534271240E-2,2.460620740E-2
4.655630390E-1,-2.459228039E-3,3.088292480E-2,9.565353394E-4,3.099544815E-2
4.706410600E-1,-3.315421939E-2,6.846278906E-3,3.880405426E-2,5.149590688E-2
4.756945500E-1,3.114938736E-4,1.854819059E-2,5.204200745E-3,1.926696935E-2
4.807626750E-1,1.686155796E-2,2.537938952E-2,-9.062767029E-3,3.178929530E-2
4.858415290E-1,2.133074403E-2,-5.691468716E-3,4.549503326E-2,5.056868110E-2
4.908909040E-1,2.124071121E-3,-1.735961437E-2,2.129554749E-2,2.755663680E-2
4.959775700E-1,2.102577686E-2,-5.025896430E-2,2.109527588E-3,5.452060979E-2
5.010424140E-1,1.361268759E-2,-2.131962776E-2,3.050518036E-2,3.962824523E-2
5.061059040E-1,-7.818460464E-3,-1.633784175E-2,1.121139526E-2,2.130137979E-2
5.111681430E-1,-1.011794806E-2,-3.989627957E-2,4.661846161E-2,6.218815771E-2
5.162346020E-1,1.130068302E-2,-2.044981718E-2,3.663253784E-2,4.344931862E-2
5.212965810E-1,-6.303787231E-4,-1.306232810E-2,1.964950562E-2,2.360349262E-2
5.263702790E-1,-1.011773944E-2,-1.291903853E-2,-2.558612823E-2,3.039605511E-2
5.314369450E-1,-1.007711887E-2,1.102510095E-2,7.638931274E-4,1.495609268E-2
5.364947580E-1,-1.704522967E-2,4.172560573E-2,7.553100586E-4,4.507922494E-2
5.415574140E-1,-9.721726179E-3,1.279318333E-2,1.496696472E-2,2.195876892E-2
5.466212160E-1,-2.154248953E-2,1.503497362E-2,5.986022949E-2,6.537106670E-2
5.516884040E-1,-2.850285172E-2,7.771253586E-3,4.717826843E-3,2.991760065E-2
5.567542890E-1,-6.937861443E-3,5.430251360E-3,3.076267242E-2,3.199943071E-2
5.618165290E-1,1.688611507E-2,1.012411714E-2,1.859664917E-2,2.708272494E-2
5.668811120E-1,1.580119133E-4,5.439519882E-4,2.315425873E-2,2.316118626E-2
5.719480390E-1,-3.306448460E-2,-3.029251099E-2,1.344013214E-2,4.681381757E-2
5.770136640E-1,-6.609648466E-3,5.590260029E-3,1.093673706E-2,1.394814244E-2
5.820813730E-1,-1.136052608E-2,-1.808363199E-2,3.721237183E-3,2.167779752E-2
5.871449140E-1,-8.894771338E-3,-3.446546197E-2,2.741622925E-2,4.492921824E-2
5.922148620E-1,5.364239216E-3,-2.216461301E-2,-6.055831909E-3,2.359487725E-2
5.973065290E-1,1.484349370E-2,-2.969741821E-3,-3.627777100E-3,1.556629174E-2
6.023528310E-1,-6.617188454E-3,1.755475998E-3,-1.309204102E-2,1.477397770E-2
6.074277270E-1,-8.994758129E-3,1.366406679E-2,1.314258575E-2,2.098427877E-2
6.124877790E-1,7.742226124E-3,-1.499167085E-2,-8.344650269E-3,1.882353442E-2
6.175664250E-1,-4.103302956E-3,2.075940371E-2,8.343696594E-3,2.274658678E-2
6.225972580E-1,-1.589828730E-2,6.334364414E-3,-1.227378845E-3,1.715768546E-2
6.276930910E-1,3.276228905E-3,8.657664061E-3,5.904197693E-3,1.097945232E-2
6.327488730E-1,-1.808616519E-2,1.461118460E-3,3.197097778E-2,3.676122494E-2
6.378160080E-1,2.707308531E-2,2.994948626E-2,3.169727325E-2,5.132875224E-2
6.428809560E-1,-2.077397704E-2,2.969631553E-2,-6.119060516E-2,7.111764506E-2
6.479446540E-1,-3.986388445E-3,1.524716616E-2,-4.166412354E-2,4.454510701E-2
6.530149660E-1,-8.666157722E-3,1.037043333E-2,1.331806183E-2,1.897416528E-2
6.580813730E-1,5.589306355E-3,-1.589709520E-2,-5.795478821E-3,1.781980797E-2
6.631634040E-1,3.099828959E-3,-3.936231136E-3,-1.762390137E-2,1.832224753E-2
6.682378310E-1,-8.769243956E-3,5.651414394E-3,1.578140259E-2,1.891800179E-2
6.732974140E-1,1.266610622E-2,5.708813667E-3,3.703594208E-2,3.955605903E-2
6.783515810E-1,7.796764374E-3,-2.284017205E-2,2.247428894E-2,3.297812392E-2
6.834192890E-1,-1.366323233E-2,1.055854559E-2,3.653907776E-2,4.041374774E-2
6.884869450E-1,5.387753248E-3,2.705016732E-2,3.623580933E-2,4.553870129E-2
6.935461120E-1,5.275785923E-3,1.964908838E-2,1.455497742E-2,2.501535446E-2
6.986028830E-1,-1.611122489E-2,9.882271290E-3,2.549171448E-3,1.907168394E-2
7.036755390E-1,3.118664026E-3,-6.771773100E-3,-1.885223389E-2,2.027288087E-2
7.087416850E-1,-6.370276213E-3,-4.282772541E-3,5.060195923E-3,9.193918775E-3
7.138060080E-1,1.742786169E-2,2.426657081E-2,-4.961872101E-2,5.791903225E-2
7.188606430E-1,5.394607782E-3,2.174791694E-2,1.731300354E-2,2.831631642E-2
7.239297060E-1,-4.165261984E-3,-9.258240461E-3,2.904891968E-2,3.077180785E-2
7.291271020E-1,5.358487368E-3,2.728998661E-4,1.692771912E-2,1.775768948E-2
7.340635600E-1,-4.253745079E-3,1.210042834E-2,2.628898621E-2,2.925107706E-2
7.391268410E-1,1.007172465E-2,-9.429335594E-3,1.656436920E-2,2.155760502E-2
7.441932480E-1,1.947477460E-2,-1.409897208E-2,1.880264282E-2,3.052191404E-2
7.494170500E-1,-2.080500126E-3,1.697242260E-4,-2.649402618E-2,2.657613047E-2
7.543424660E-1,7.424265146E-3,-1.170659065E-2,9.361267090E-3,1.672714259E-2
7.593945500E-1,-4.429131746E-3,5.020380020E-3,-7.349014282E-3,9.941299437E-3
7.644578310E-1,-4.407376051E-3,2.605885267E-3,2.834606171E-2,2.880477072E-2
7.695117370E-1,-6.813198328E-3,-1.641726494E-2,-9.896278381E-3,2.034410444E-2
7.745681950E-1,2.178680897E-2,7.529646158E-3,2.106857300E-2,3.122891904E-2
7.796655390E-1,-2.349293232E-2,-1.148220897E-2,3.752231598E-2,4.573492307E-2
7.847247060E-1,-6.737887859E-3,-9.010314941E-3,-7.922172546E-3,1.376029527E-2
7.898024660E-1,1.225519180E-2,-4.181295633E-3,4.024505615E-3,1.355985268E-2
7.948580390E-1,2.406755090E-2,-2.784711123E-2,1.824569702E-2,4.108058020E-2
7.999260600E-1,-9.403318167E-3,-1.578429341E-2,1.571655273E-2,2.417801359E-2
8.049914770E-1,-2.834203839E-2,3.356605768E-3,2.271270752E-2,3.647471762E-2
8.100630910E-1,-9.166359901E-3,8.136808872E-3,8.275985718E-3,1.478924447E-2
8.151276230E-1,1.227951050E-2,-1.425921917E-3,4.621696472E-2,4.784169165E-2
8.202049660E-1,7.361203432E-3,-1.461088657E-3,5.448341370E-3,9.273970008E-3
8.252588200E-1,-4.640012980E-3,1.761448383E-2,-1.359558105E-2,2.272970711E-2
8.303272580E-1,-9.414792061E-3,1.990246773E-2,1.265430450E-2,2.539444730E-2
8.353886120E-1,2.578139305E-3,-1.588404179E-3,1.730155945E-2,1.756456061E-2
8.404535080E-1,-1.635882258E-2,4.604241252E-2,-4.221916199E-3,4.904425964E-2
8.455264770E-1,2.771437168E-3,2.666166425E-2,-6.561279297E-3,2.759665904E-2
8.505834560E-1,1.223534346E-2,1.926380396E-2,3.625106812E-2,4.283617294E-2
8.556667370E-1,2.613574266E-3,7.017523050E-3,5.256938934E-2,5.310006682E-2
8.607302790E-1,2.158331871E-2,-2.634540200E-2,1.887226105E-2,3.893689883E-2
8.657839250E-1,1.426410675E-2,1.669073105E-2,-9.788513184E-3,2.403872365E-2
8.708464250E-1,-7.252186537E-3,9.477645159E-3,2.355289459E-2,2.640376509E-2
8.759198620E-1,-3.066658974E-5,-7.333606482E-3,-1.703453064E-2,1.854610360E-2
8.809784560E-1,-2.380332351E-2,-9.647369385E-3,2.586841583E-2,3.645332473E-2
8.860555390E-1,-4.717707634E-3,4.743427038E-3,5.179119110E-2,5.222149309E-2
8.911156950E-1,1.431313157E-2,-4.211068153E-5,5.136013031E-2,5.331726263E-2
8.961766330E-1,-1.907882094E-2,-1.186463237E-2,1.767730713E-2,2.858772634E-2
9.012378830E-1,-1.417911053E-2,1.711249352E-4,9.040832520E-4,1.420893471E-2
9.063037680E-1,1.794993877E-4,-9.379416704E-3,1.277256012E-2,1.584752251E-2
9.113777270E-1,-9.341746569E-3,-2.121895552E-3,-1.585006714E-3,9.709939030E-3
9.164402270E-1,9.779602289E-3,-2.105149627E-2,8.049011230E-4,2.322614867E-2
9.215066330E-1,1.443400979E-2,-4.140406847E-3,-1.582527161E-2,2.181565559E-2
9.265725180E-1,2.606979012E-2,1.025196910E-2,4.608154297E-2,5.392815063E-2
9.316384040E-1,1.148012280E-2,3.042757511E-3,4.332637787E-2,4.492467710E-2
9.367061120E-1,-2.663689852E-2,5.345940590E-3,-1.880073547E-2,3.303893306E-2
9.417706950E-1,-1.924908161E-2,-6.623238325E-3,2.886390686E-2,3.532024275E-2
9.468371020E-1,-2.036094666E-4,2.832949162E-3,-1.413631439E-2,1.441882250E-2
9.518855390E-1,6.860166788E-3,-6.687819958E-3,1.449108124E-2,1.737182373E-2
9.570041850E-1,2.578952909E-2,1.722905040E-2,-1.650714874E-2,3.513439835E-2
9.620321540E-1,6.550461054E-3,9.957313538E-3,5.011558533E-3,1.292951476E-2
9.671043410E-1,-1.490157843E-2,7.447361946E-3,4.967689514E-3,1.738384821E-2
9.721716330E-1,1.786559820E-3,1.689252257E-2,-2.832794189E-2,3.303061318E-2
9.772401230E-1,1.706868410E-3,1.443329453E-2,4.196166992E-4,1.453992672E-2
9.823040290E-1,-7.476508617E-4,1.912111044E-2,5.172729492E-3,1.982253709E-2
9.873701750E-1,-1.036036015E-2,1.184019446E-2,-1.992225647E-3,1.585863267E-2
9.924340290E-1,-8.886158466E-4,4.671961069E-3,1.941204071E-2,1.998609974E-2
9.975004870E-1,-3.215074539E-3,-2.382308245E-3,2.638149261E-2,2.668323911E-2
1.002568925E0,1.602053642E-3,9.572356939E-3,7.158279419E-3,1.205974948E-2
1.007633820E0,-5.545824766E-3,1.425307989E-2,3.085517883E-2,3.443760328E-2
1.012703873E0,-1.501455903E-2,-2.385288477E-3,1.634979248E-2,2.232582133E-2
1.017783612E0,1.587304473E-2,-1.899132133E-2,2.809619904E-2,3.744356066E-2
1.022837154E0,3.948101401E-2,-3.540709615E-2,2.786445618E-2,5.990693485E-2
1.027907102E0,1.310759783E-2,-2.555719018E-2,6.251335144E-3,2.939486829E-2
1.032986477E0,-1.165777445E-3,-8.556127548E-3,-1.992797852E-2,2.171844109E-2
1.038063820E0,-2.725005150E-2,1.176565886E-3,8.750915527E-3,2.864486231E-2
1.043125279E0,-9.096562862E-4,1.304510236E-2,2.530765533E-2,2.848648080E-2
1.048163820E0,-9.689033031E-4,1.758685708E-2,1.084136963E-2,2.068264033E-2
1.053221112E0,6.096273661E-3,1.021045446E-2,-1.775836945E-2,2.137235640E-2
1.058286998E0,-1.064807177E-2,1.013043523E-2,2.752780914E-2,3.120556724E-2
1.063352362E0,-2.482771873E-2,5.986988544E-4,9.619140625E-2,9.934566268E-2
1.068418508E0,-5.579680204E-3,-2.326288819E-2,3.599452972E-2,4.321921989E-2
1.073505487E0,1.630395651E-3,-1.836735010E-2,9.560585022E-3,2.077071317E-2
1.078561737E0,1.828235388E-2,3.220349550E-3,-4.772186279E-3,1.916739097E-2
1.083625539E0,1.811966300E-2,-1.105248928E-2,-4.731178284E-3,2.174543066E-2
1.088702362E0,1.220405102E-3,-8.582025766E-3,-2.311706543E-3,8.971317741E-3
1.093765383E0,2.484157681E-2,1.286780834E-2,7.214546204E-3,2.889176539E-2
1.098817466E0,1.036134362E-2,5.081951618E-2,-7.095336914E-3,5.234810859E-2
1.103882310E0,-2.300253510E-2,1.718896627E-2,2.622413635E-2,3.888807671E-2
1.108951320E0,2.473917603E-2,-6.600499153E-3,-4.525661469E-2,5.199764026E-2
1.114021112E0,3.877344728E-2,-2.311712503E-2,-6.867408752E-3,4.566117592E-2
1.119083873E0,5.229622126E-3,-2.059811354E-2,-2.063751221E-3,2.135158772E-2
1.124149758E0,7.551252842E-3,-3.704798222E-2,7.456779480E-3,3.853800677E-2
1.129415487E0,7.475048304E-3,-1.535418630E-2,2.644538879E-3,1.728065305E-2
1.134265487E0,-1.170805097E-2,1.100492477E-2,2.565383911E-4,1.607024078E-2
1.139360227E0,-5.211699009E-2,-8.090496063E-3,3.114223480E-2,6.124929037E-2
1.144419758E0,5.369395018E-3,-2.934587002E-2,3.563499451E-2,4.647432973E-2
1.149508612E0,-1.126950979E-2,4.156857729E-3,2.583408356E-2,2.849001914E-2
1.154601529E0,-6.387501955E-3,2.788043022E-2,-2.890586853E-3,2.874846192E-2
1.159616268E0,-8.619457483E-3,1.350286603E-2,6.637573242E-3,1.734012159E-2
1.164685018E0,-2.281850576E-2,1.513302326E-3,1.608467102E-2,2.795873622E-2
1.169741685E0,-8.543670177E-3,1.803064346E-2,3.733348846E-2,4.233069530E-2
1.174817779E0,5.820125341E-3,1.783332229E-2,2.751731873E-2,3.330321415E-2
1.179882570E0,1.050752401E-2,1.768755913E-2,3.533363342E-3,2.087444527E-2
1.184948300E0,-1.522541046E-3,-1.328477263E-2,2.251434326E-2,2.618585434E-2
1.190050539E0,-2.764874697E-2,2.500125766E-2,-2.042484283E-2,4.250517966E-2
1.195081477E0,1.058238745E-2,5.797982216E-3,3.501892090E-3,1.256450437E-2
1.200146320E0,1.756083965E-2,2.243989706E-2,2.723407745E-2,3.941607596E-2
1.205223404E0,7.680654526E-4,3.353536129E-3,-1.494407654E-3,3.750917667E-3
1.210276320E0,2.212876081E-2,9.551048279E-4,1.277160645E-2,2.556771815E-2
1.215361685E0,2.203604579E-2,8.183300495E-3,-2.296733856E-2,3.286415010E-2
1.220420539E0,2.907016873E-2,1.049572229E-2,-8.525848389E-3,3.206126927E-2
1.225481529E0,7.539302111E-3,-1.091453433E-2,2.242565155E-2,2.605528705E-2
1.230534602E0,2.828240395E-4,2.956339717E-2,-3.001976013E-2,4.213383961E-2
1.235607518E0,2.159297466E-2,1.511874795E-2,5.100440979E-2,5.741326425E-2
1.240671320E0,-2.605605125E-2,1.267647743E-2,-2.543640137E-2,3.855672965E-2
1.245753612E0,-3.303298354E-2,-1.588052511E-2,4.129600525E-2,5.521529796E-2
1.250818977E0,-3.028848767E-2,-1.579299569E-2,-4.219722748E-2,5.429012070E-2
1.255870018E0,2.220821381E-2,-1.571264863E-2,-1.463890076E-3,2.724399129E-2
1.260936268E0,-1.747399569E-3,-1.795440912E-2,1.280212402E-2,2.212032079E-2
1.266000852E0,-3.257557750E-2,-1.299664378E-2,8.192062378E-4,3.508207659E-2
1.271068300E0,-1.568815112E-2,-3.653454781E-2,2.694988251E-2,4.803319098E-2
1.276134445E0,-1.794567704E-2,-3.152602911E-2,1.484489441E-2,3.919577434E-2
1.281198508E0,-5.931198597E-3,1.614847779E-2,-1.378822327E-2,2.204693976E-2
1.286265175E0,3.605127335E-3,1.126566529E-2,1.958465576E-2,2.287948642E-2
1.291332623E0,-5.942255259E-3,-2.208289504E-2,4.177093506E-4,2.287223496E-2
1.296397987E0,3.586947918E-3,1.615801454E-2,-6.710052490E-3,1.785979937E-2
1.301462779E0,-1.545998454E-2,1.775175333E-3,-6.652832031E-3,1.692402268E-2
1.306528977E0,1.078456640E-2,1.839199662E-2,-1.609802246E-2,2.671551496E-2
1.311595852E0,2.023369074E-2,1.824155450E-2,1.491641998E-2,3.105891396E-2
1.316652518E0,2.005231380E-2,-3.411534429E-2,3.855037689E-2,5.524566556E-2
1.321735852E0,1.987242699E-2,-1.714500785E-2,2.872943878E-2,3.891330494E-2
1.326797779E0,2.682313323E-2,-1.699489355E-2,2.611637115E-2,4.111413048E-2
1.331865904E0,-1.617041230E-2,6.909340620E-3,-9.733200073E-3,2.009866676E-2
1.336932102E0,-1.377940178E-2,-1.214969158E-2,1.648330688E-2,2.468170020E-2
1.341996737E0,-1.600331068E-2,-2.619478106E-2,-7.406234741E-3,3.157728330E-2
1.347065123E0,5.497127771E-3,1.074075699E-4,-3.585243225E-2,3.627157080E-2
1.352137258E0,2.676382661E-2,-6.965160370E-3,-9.416580200E-3,2.921451448E-2
1.357216893E0,-2.098521590E-2,-4.580885172E-3,2.154159546E-2,3.042045579E-2
1.362260383E0,1.248627901E-2,2.133846283E-4,-1.902294159E-2,2.275576857E-2
1.367325695E0,-1.846048236E-2,4.967749119E-3,1.439094543E-2,2.392837752E-2
1.372393195E0,7.754564285E-3,-1.650488377E-2,-1.661014557E-2,2.466660478E-2
1.377458768E0,5.296766758E-3,2.533555031E-3,9.655952454E-3,1.130097593E-2
1.382528977E0,5.348891020E-3,-1.405477524E-2,4.045677185E-2,4.316129899E-2
1.387588508E0,5.343556404E-3,-1.145315170E-2,1.399230957E-2,1.885505253E-2
1.392669706E0,-3.277212381E-2,5.794465542E-4,-9.873390198E-3,3.423202728E-2
1.397733820E0,-3.726282716E-2,1.013386250E-2,-2.662658691E-3,3.870792178E-2
1.402801216E0,8.165270090E-3,2.435535192E-2,3.299522400E-2,4.181554268E-2
1.407861112E0,1.050710678E-2,-1.132410765E-2,6.595611572E-3,1.679692826E-2
1.412918664E0,-8.545517921E-3,1.268658042E-2,1.794815063E-3,1.540118698E-2
1.417986373E0,1.057171822E-2,-3.988593817E-3,2.316093445E-2,2.577011818E-2
1.423051216E0,3.398716450E-3,2.455833554E-2,-5.540847778E-3,2.540401764E-2
1.428126320E0,2.241164446E-2,2.915972471E-2,1.633644104E-3,3.681358643E-2
1.433180643E0,1.750329137E-2,-1.147112250E-2,2.299785614E-2,3.109426390E-2
1.438245227E0,-1.714110374E-3,1.728987694E-2,6.187438965E-3,1.844349262E-2
1.443316060E0,-1.358786225E-2,1.007851958E-2,8.514404297E-3,1.893942022E-2
1.448381685E0,7.944494486E-3,1.950174570E-2,-1.293849945E-2,2.471513395E-2
1.453447310E0,-1.831984520E-2,-4.413336515E-3,1.330280304E-2,2.306640059E-2
1.458528560E0,-8.732497692E-3,-1.387584209E-2,2.032184601E-2,2.611078197E-2
1.463586373E0,1.513731480E-2,5.199342966E-3,5.578136444E-2,5.803216423E-2
1.468663716E0,1.262283325E-2,3.836643696E-2,1.017856598E-2,4.165240221E-2
1.473726998E0,1.012936234E-2,2.612203360E-2,2.965927124E-3,2.817377050E-2
1.478790279E0,-1.842465997E-2,-1.442492008E-2,-6.560325623E-3,2.430193998E-2
1.483844706E0,-3.015914559E-2,-9.442538023E-3,-6.500244141E-3,3.226435744E-2
1.488913977E0,-1.566982269E-2,1.411139965E-4,-1.832294464E-2,2.411003021E-2
1.493981216E0,-1.792997122E-2,-2.593606710E-2,-8.666038513E-3,3.269959737E-2
1.499048977E0,-5.915641785E-3,9.970277548E-3,-3.234577179E-2,3.436059087E-2
1.504113404E0,1.297086477E-3,2.419528365E-2,-1.193046570E-3,2.425938054E-2
1.509202310E0,1.557651162E-2,-4.509955645E-3,2.019500732E-2,2.589991766E-2
1.514248195E0,1.180738211E-3,-1.396948099E-2,5.774497986E-3,1.516197114E-2
1.519311685E0,-8.393615484E-3,-1.968145370E-3,4.611301422E-2,4.691200761E-2
1.524374445E0,1.113742590E-3,3.854146600E-2,-4.149436951E-3,3.878018632E-2
1.529460956E0,-5.982697010E-3,3.347423673E-2,-1.124286652E-2,3.581506995E-2
1.534507883E0,-1.095622778E-3,2.262085676E-3,-2.778339386E-2,2.789685278E-2
1.539572623E0,8.400470018E-3,-1.681026816E-2,-6.175041199E-3,1.978090357E-2
1.544640956E0,1.064115763E-2,9.413719177E-3,-2.037525177E-2,2.483954970E-2
1.549707570E0,-3.713518381E-3,1.651898026E-2,-1.782703400E-2,2.458597301E-2
1.554785018E0,1.105427742E-3,1.416510344E-2,-2.717494965E-2,3.066512700E-2
1.559841945E0,2.008533478E-2,4.735937715E-2,-3.190994263E-3,5.154137873E-2
1.564912258E0,3.273963928E-3,1.365792751E-2,1.108646393E-2,1.789322515E-2
1.570004550E0,1.985776424E-2,1.354476810E-2,4.662799835E-2,5.245914385E-2
1.575050904E0,3.160429001E-2,-8.206963539E-4,8.229255676E-3,3.266841500E-2
1.580112883E0,2.816885710E-3,4.041880369E-3,3.429698944E-2,3.464902779E-2
1.585150279E0,7.529407740E-3,2.069157362E-2,1.263427734E-2,2.538618057E-2
1.590244393E0,-1.397836208E-2,-1.743206382E-2,5.408287048E-3,2.298958513E-2
1.595299081E0,-1.387700438E-2,4.251658916E-3,-2.076053619E-2,2.533076622E-2
1.600373820E0,4.244744778E-4,1.139780879E-2,-3.952980042E-3,1.207129964E-2
1.605410539E0,-1.859605312E-2,-6.216168404E-4,3.171157837E-2,3.676715657E-2
1.610511841E0,-1.127246022E-2,1.121613383E-2,1.719093323E-2,2.341790347E-2
1.615556373E0,-1.740932465E-3,-1.510685682E-2,2.179718018E-2,2.657752871E-2
1.620629289E0,-2.787008882E-2,-1.735144854E-2,7.363319397E-3,3.364569942E-2
1.625690487E0,-1.470118761E-3,2.090856433E-2,-4.572868347E-3,2.145321506E-2
1.630756633E0,2.228474617E-2,4.162669182E-3,4.970550537E-3,2.320870740E-2
1.635821998E0,1.733273268E-2,-2.194803953E-2,2.555847168E-3,2.808331206E-2
1.640888143E0,-8.799225092E-3,1.387295127E-2,2.628326416E-2,3.099508209E-2
1.645960279E0,-1.106208563E-2,1.936852932E-3,1.893901825E-2,2.201834576E-2
1.651024602E0,1.747173071E-2,4.405379295E-3,-3.109741211E-2,3.594047552E-2
1.656091529E0,7.863312960E-3,2.575352788E-2,2.854728699E-2,3.924313294E-2
1.661159498E0,7.104873657E-4,1.836532354E-2,2.593040466E-2,3.178326269E-2
1.666237883E0,1.272600889E-2,1.584178209E-2,-4.215240479E-4,2.032464132E-2
1.671289341E0,-8.718311787E-3,-1.511308551E-2,9.084701538E-3,1.967094599E-2
1.676352154E0,1.266694069E-2,2.307629585E-2,2.326869965E-2,3.513401770E-2
1.681407362E0,-4.084974527E-3,4.194086790E-2,8.823394775E-3,4.305317308E-2
1.686471581E0,-8.869200945E-3,-2.486881614E-2,-7.457733154E-4,2.641357453E-2
1.691542727E0,-6.484627724E-3,6.225466728E-3,1.826763153E-2,2.035959711E-2
1.696600123E0,-1.119443774E-2,-7.970660925E-3,1.099395752E-2,1.759869239E-2
1.701665852E0,3.084778786E-3,-1.022487879E-2,-1.522254944E-2,1.859543002E-2
1.706732831E0,-3.258919716E-2,-2.201452851E-2,3.910064697E-3,3.952194129E-2
1.711817831E0,-3.232800961E-2,-4.785025120E-2,-8.678436279E-4,5.775378687E-2
1.716863716E0,-1.306945086E-2,-2.131769061E-2,-1.273727417E-2,2.806229912E-2
1.721928977E0,-3.577709198E-3,-2.356478572E-2,1.350212097E-2,2.739354668E-2
1.726995487E0,-3.444752097E-2,1.706844568E-2,1.515388489E-3,3.847414640E-2
1.732060175E0,3.884971142E-3,-6.826341152E-3,-3.250122070E-3,8.500307510E-3
1.737127050E0,3.837376833E-3,2.735555172E-3,3.241062164E-2,3.275144452E-2
1.742195539E0,8.489191532E-3,-4.306852818E-3,-3.436660767E-2,3.566060959E-2
1.747254914E0,-1.777717471E-2,1.009130478E-2,8.686065674E-3,2.221058553E-2
1.752347466E0,8.434265852E-3,4.337224364E-2,-1.988506317E-2,4.845311235E-2
1.757408664E0,1.774203777E-2,7.272154093E-3,-1.971912384E-2,2.750469005E-2
1.762473248E0,-1.816055179E-2,3.355741501E-5,-7.674217224E-3,1.971548572E-2
1.767539914E0,-2.990213037E-2,-7.038414478E-3,-1.235771179E-2,3.311177615E-2
1.772606581E0,-5.910307169E-3,-6.870597601E-3,4.001235962E-2,4.102591577E-2
1.777676373E0,3.526538610E-3,2.170035243E-2,2.780532837E-2,3.544683422E-2
1.782743300E0,1.287996769E-2,9.644657373E-3,1.807689667E-2,2.420097470E-2
1.787808404E0,-8.622437716E-3,1.901724935E-2,-5.831718445E-3,2.167974042E-2
1.792874810E0,-8.459210396E-3,1.881176233E-2,-3.413200378E-3,2.090671135E-2
1.797941737E0,-2.735370398E-2,-3.442764282E-4,-1.764011383E-2,3.255022678E-2
1.803020123E0,-2.006658912E-2,-7.465183735E-3,6.265640259E-3,2.230818717E-2
1.808077935E0,-5.661338568E-3,4.005867243E-2,-1.516819000E-2,4.320673534E-2
1.813117310E0,1.556336880E-3,2.790835500E-2,1.584053040E-2,3.212819426E-2
1.818179029E0,-1.276978850E-2,1.337996125E-2,-3.294944763E-3,1.878689763E-2
1.823273768E0,-1.980042458E-2,1.084786654E-2,-8.020401001E-3,2.395954620E-2
1.828314810E0,6.532192230E-3,-2.006989717E-2,3.925323486E-3,2.146808032E-2
1.833403716E0,2.784478664E-2,-3.216505051E-3,2.527427673E-2,3.774211325E-2
1.838469862E0,-1.521179080E-2,1.344409585E-2,1.081371307E-2,2.300171044E-2
1.843534966E0,1.583039761E-3,-5.615144968E-3,8.348464966E-3,1.018492686E-2
1.848602154E0,-3.191590309E-3,-1.036426425E-2,-2.735614777E-2,2.942725000E-2
1.853657050E0,-1.273664832E-2,-6.712377071E-4,1.801490784E-2,2.207282662E-2
1.858712102E0,-3.195464611E-3,-6.108582020E-4,1.241683960E-3,3.482229297E-3
1.863785748E0,-1.273834705E-2,-5.406141281E-3,3.607749939E-3,1.430061918E-2
1.868843977E0,-1.259535551E-2,-1.491233706E-2,2.257823944E-2,2.984623382E-2
1.873906425E0,6.394654512E-3,-1.943227649E-2,8.146286011E-3,2.201969463E-2
1.878973612E0,-1.267814636E-2,2.586770058E-2,-2.517795563E-2,3.825967561E-2
1.884067154E0,-1.263770461E-2,-4.736781120E-4,-1.546287537E-2,1.997589706E-2
1.889191112E0,8.834540844E-3,6.661981344E-3,-5.831718445E-3,1.250759958E-2
1.894174706E0,-7.880419493E-3,9.038209915E-3,3.460407257E-2,3.662283561E-2
1.899239706E0,3.943622112E-3,6.694257259E-3,2.719879150E-2,2.828673708E-2
1.904305539E0,-5.665898323E-3,-2.815335989E-3,1.747608185E-2,1.858606890E-2
1.909389602E0,6.298422813E-3,4.339784384E-3,1.495265961E-2,1.679541270E-2
1.914450956E0,3.236651421E-2,-2.815753222E-3,-1.799583435E-3,3.253856494E-2
1.919502779E0,-2.967992425E-2,-9.861946106E-3,-4.157066345E-3,3.155054809E-2
1.924575695E0,-1.524427533E-2,1.635619998E-2,5.383491516E-3,2.299772139E-2
1.929630695E0,1.337406039E-2,3.517511487E-2,-2.317047119E-2,4.419304168E-2
1.934720383E0,1.324978471E-2,-5.497097969E-3,-6.347656250E-3,1.568654266E-2
1.939787050E0,-2.012848854E-2,6.381571293E-3,1.270771027E-2,2.464480479E-2
1.944853456E0,6.102889776E-3,2.538758516E-2,7.856369019E-3,2.726714650E-2
1.949921164E0,-3.196689487E-2,3.855526447E-3,1.254463196E-2,3.455597260E-2
1.955001893E0,-1.741030812E-2,-5.675941706E-3,-3.507232666E-2,3.956517712E-2
1.960057362E0,4.047483206E-3,-3.354132175E-3,8.516311646E-4,5.325185311E-3
1.965091529E0,-3.163439035E-2,1.810824871E-2,-1.528739929E-3,3.648260367E-2
1.970156633E0,1.975655556E-3,1.568871737E-2,2.461528778E-2,2.925664813E-2
1.975257102E0,-3.792643547E-4,-2.012464404E-2,1.965618134E-2,2.813379825E-2
1.980323768E0,-5.194455385E-3,-1.995411515E-2,1.949501038E-2,2.837612567E-2
1.985386789E0,-1.942199469E-2,3.009912372E-2,5.080223083E-3,3.617982577E-2
1.990453195E0,1.160660386E-2,3.616064787E-3,2.166271210E-2,2.484073818E-2
1.995516998E0,2.342927456E-2,-2.728882432E-2,3.335762024E-2,4.905447653E-2
2.000583143E0,1.144525409E-2,-2.938202024E-2,-1.443195343E-2,3.467820979E-2
2.005649550E0,4.262566566E-3,1.749873161E-3,9.441375732E-3,1.050576535E-2
2.010715695E0,1.134333014E-2,-2.433630824E-2,4.614830017E-3,2.724378266E-2
2.015783143E0,1.355463266E-2,6.749123335E-3,2.203941345E-3,1.530150613E-2
2.020860800E0,2.060768008E-2,-5.179733038E-3,2.183914185E-3,2.136060846E-2
2.025918300E0,-3.280222416E-3,-2.176025510E-2,-2.117156982E-4,2.200712122E-2
2.030974237E0,-5.645990372E-3,4.500657320E-3,-2.396774292E-2,2.503169639E-2
2.036037310E0,-8.630752563E-4,-7.463753223E-3,-2.377033234E-2,2.492952487E-2
2.041087570E0,-3.169628978E-2,-4.234313965E-4,-1.882934570E-2,3.686974830E-2
2.046153404E0,-1.239100099E-2,1.383617520E-2,2.883625031E-2,3.430023296E-2
2.051221841E0,-5.129098892E-3,1.609489322E-2,3.096961975E-2,3.527705473E-2
2.056285539E0,-1.460373402E-2,4.190057516E-3,3.784465790E-2,4.078043355E-2
2.061351789E0,-2.157178521E-2,-3.617405891E-2,-5.229949951E-3,4.244121619E-2
2.066417518E0,-1.903170347E-2,-7.415384054E-3,1.856708527E-2,2.760308521E-2
2.071486164E0,2.149581909E-2,2.353128791E-2,1.366233826E-2,3.467637864E-2
2.076553195E0,9.374171495E-3,-1.941943169E-2,3.493118286E-2,4.105090686E-2
2.081617831E0,-9.671390057E-3,-2.880895138E-2,1.379013062E-3,3.042027518E-2
2.086694498E0,2.326279879E-3,2.850127220E-2,3.937625885E-2,4.866440030E-2
2.091775331E0,-2.452164888E-3,-1.288056374E-4,1.767444611E-2,1.784420771E-2
2.096817154E0,-2.377483249E-2,-9.627014399E-3,-2.285861969E-2,3.435751097E-2
2.101886112E0,1.922228932E-2,1.891261339E-2,-2.742290497E-2,3.846035711E-2
2.106957102E0,1.672345400E-2,2.129077911E-3,8.437156677E-3,1.885185665E-2
2.112012831E0,-2.386477590E-2,3.537389636E-2,2.499866486E-2,4.945476031E-2
2.117109654E0,-1.180106401E-2,1.375672221E-2,2.004241943E-2,2.702241837E-2
2.122169550E0,4.910856485E-3,8.945912123E-3,8.735656738E-4,1.024250810E-2
2.127233352E0,-6.968468428E-3,2.070206404E-2,-3.477096558E-2,4.106281840E-2
2.132300018E0,1.439973712E-2,1.473814249E-3,-2.972984314E-2,3.306641999E-2
2.137365643E0,9.558290243E-3,2.758872509E-2,1.090145111E-2,3.116633281E-2
2.142431268E0,-1.666745543E-2,-1.092702150E-3,6.062507629E-3,1.776941382E-2
2.147497154E0,-1.653409004E-2,-1.527309418E-2,-1.061344147E-2,2.488551143E-2
2.152566164E0,-4.583507776E-3,8.510380983E-3,1.560497284E-2,1.835620618E-2
2.157628143E0,2.514094114E-3,3.691256046E-3,3.923225403E-2,3.948564038E-2
2.162695435E0,3.568336368E-2,-2.246755362E-2,1.277732849E-2,4.406079359E-2
2.167760800E0,4.436701536E-3,-5.596637726E-3,2.692985535E-2,2.786079294E-2
2.172836320E0,-2.649751306E-2,-1.035040617E-2,-2.080726624E-2,3.524473626E-2
2.177878039E0,-4.911959171E-3,-7.885783911E-3,-4.004478455E-3,1.011675731E-2
2.182942883E0,-1.433876157E-2,-6.928145885E-4,-4.910659790E-2,5.116188066E-2
2.188003300E0,-9.376913309E-3,3.965079784E-3,-1.307392120E-2,1.657032820E-2
2.193096216E0,1.195862889E-2,-5.517095327E-3,3.672599792E-3,1.367242243E-2
2.198161320E0,-8.839368820E-5,4.187881947E-3,3.928470612E-2,3.950739555E-2
2.203227727E0,-1.678368449E-2,1.128247380E-2,2.708244324E-2,3.380007414E-2
2.208293873E0,-4.830986261E-3,1.826804876E-2,-1.647949219E-3,1.896775607E-2
2.213331581E0,2.132508159E-2,1.099205017E-2,1.261997223E-2,2.710807944E-2
2.218408768E0,1.163241267E-2,1.808431745E-2,-2.073955536E-2,2.987448273E-2
2.223468925E0,-2.683311701E-3,2.506086230E-2,-3.938674927E-3,2.551000081E-2
2.228537623E0,-5.054086447E-3,1.540264487E-2,3.410530090E-2,3.776184329E-2
2.233600852E0,1.397714019E-2,-6.050646305E-3,-1.131153107E-2,1.897159729E-2
2.238669237E0,2.572312951E-2,8.255839348E-3,-3.259563446E-2,4.233572559E-2
2.243733456E0,1.129242778E-2,-1.318997145E-2,3.307342529E-3,1.767576834E-2
2.248801529E0,-7.818758488E-3,-2.490058541E-2,1.278400421E-2,2.906205261E-2
2.253868143E0,-1.732301712E-2,-2.221053839E-2,1.268482208E-2,3.089174079E-2
2.258932362E0,-1.476627588E-2,-3.018319607E-3,2.683067322E-2,3.077398547E-2
2.263995539E0,-2.178505063E-2,8.939415216E-3,4.796981812E-4,2.355274264E-2
2.269064029E0,-9.897321463E-3,1.599436998E-2,2.859115601E-3,1.902501998E-2
2.274131893E0,-1.463568211E-2,2.293625474E-2,4.797077179E-2,5.514952328E-2
2.279196581E0,-1.215335727E-2,1.368135214E-3,2.381610870E-2,2.677280188E-2
2.284267727E0,2.183496952E-3,-5.717098713E-3,-7.261276245E-3,9.496262914E-3
2.289352675E0,2.596011758E-2,2.284204960E-2,-7.534027100E-5,3.457878845E-2
2.294414341E0,-2.647879720E-2,-1.297631860E-2,-9.578704834E-3,3.100424377E-2
2.299479706E0,-2.627336979E-2,-3.415226936E-3,-7.124900818E-3,2.743570569E-2
2.304547675E0,3.100019693E-2,-1.752853394E-2,2.381992340E-2,4.284449163E-2
2.309588716E0,6.973803043E-3,-1.267820597E-2,4.614830017E-3,1.518774149E-2
2.314678977E0,-2.397912741E-2,2.306556702E-2,-7.300376892E-3,3.406338850E-2
2.319748977E0,-2.412259579E-3,-1.037910581E-2,-2.487182617E-3,1.094216208E-2
2.324813820E0,1.649042964E-2,-1.741856337E-2,-5.709934235E-2,6.193283068E-2
2.329882831E0,-7.415145636E-3,1.588496566E-2,9.887695312E-3,2.012667477E-2
2.334946373E0,1.173502207E-2,-3.253251314E-3,-1.870441437E-2,2.231926307E-2
2.340021268E0,-9.755373001E-3,-3.168910742E-3,-4.467678070E-2,4.583911028E-2
2.345081945E0,-7.261693478E-3,6.362497807E-3,-8.672714233E-3,1.297804079E-2
2.350119498E0,1.178801060E-2,-7.625222206E-4,9.050369263E-4,1.184726660E-2
2.355188768E0,9.351134300E-3,1.570105553E-3,1.277065277E-2,1.590592708E-2
2.360277518E0,-2.619773149E-3,-8.679628372E-4,1.028633118E-2,1.065012582E-2
2.365343404E0,-7.314592600E-3,6.266534328E-3,6.971359253E-4,9.657055239E-3
2.370411112E0,-1.677584648E-2,2.532124519E-2,-1.678466797E-3,3.042058077E-2
2.375477518E0,9.432405233E-3,1.556327939E-2,-1.354217529E-2,2.268427750E-2
2.380541841E0,2.159953117E-3,-3.567844629E-3,-2.767944336E-2,2.799190057E-2
2.385605643E0,-5.054324865E-3,2.977210283E-2,1.769256592E-2,3.499930279E-2
2.390669706E0,2.101600170E-3,2.002689242E-2,-1.333618164E-2,2.415257510E-2
2.395732779E0,4.446804523E-3,-1.566827297E-3,-8.475303650E-3,9.698442669E-3
2.400785539E0,-5.109935999E-3,3.094136715E-3,8.220672607E-3,1.016191842E-2
2.405850904E0,-1.453262568E-2,-6.378859282E-3,-6.099700928E-3,1.700274702E-2
2.410916164E0,-3.348547220E-2,-6.377130747E-3,-2.742767334E-2,4.375182179E-2
2.415982831E0,-2.101063728E-5,-1.582765579E-2,1.081275940E-2,1.916848703E-2
2.421053404E0,-4.836827517E-3,1.281571388E-2,-3.527641296E-3,1.414502301E-2
2.426116789E0,1.419496536E-2,1.508951187E-2,2.976036072E-2,3.626112905E-2
2.431186373E0,2.831470966E-2,-8.684545755E-3,3.387451172E-3,2.980971224E-2
2.436250070E0,6.733357906E-3,-2.043715119E-2,5.734443665E-3,2.226879210E-2
2.441314185E0,-7.536709309E-3,1.072433591E-2,1.044178009E-2,1.675840504E-2
2.446381425E0,1.869627833E-2,3.461331129E-3,-3.902435303E-3,1.941032298E-2
2.451445800E0,1.867905259E-2,-3.219994903E-2,-2.050399780E-2,4.249891350E-2
2.456513248E0,-5.143016577E-3,-1.060101390E-2,-2.509021759E-2,2.771914742E-2
2.461577362E0,-5.108118057E-3,1.552355289E-2,-1.538181305E-2,2.244267670E-2
2.466643352E0,2.099809051E-2,1.059389114E-2,8.502006531E-3,2.500868748E-2
2.471700383E0,8.932650089E-3,8.083134890E-3,4.643821716E-2,4.797538244E-2
2.476794602E0,-2.911090851E-2,1.989853382E-2,3.290176392E-3,3.541499546E-2
2.481862050E0,-3.225505352E-4,5.536645651E-3,-1.574039459E-2,1.668887371E-2
2.486925852E0,-9.834796190E-3,1.029869914E-2,1.765060425E-2,2.267885029E-2
2.491991998E0,6.912797689E-3,-6.413072348E-3,7.999420166E-3,1.236547580E-2
2.497057883E0,-5.141824484E-3,-1.343134046E-2,3.190040588E-3,1.473145018E-2
2.502124289E0,-5.166232586E-3,9.887218475E-4,2.929973602E-2,2.976813835E-2
2.507191737E0,2.331355214E-2,-3.717839718E-3,-1.607322693E-2,2.856033385E-2
2.512263352E0,1.117420197E-2,-1.778084040E-2,7.825851440E-3,2.241127006E-2
2.517327154E0,-7.886320353E-3,-8.127689362E-3,-1.743316650E-3,1.145829551E-2
2.522391633E0,-2.436044812E-2,-2.473795414E-2,-4.110336304E-3,3.496130250E-2
2.527458560E0,-2.894580364E-3,-1.027351618E-2,1.730823517E-2,2.033466830E-2
2.532535123E0,6.618916988E-3,-2.195614576E-2,-1.834869385E-3,2.300541555E-2
2.537591893E0,-5.236268044E-4,4.466742277E-3,4.806995392E-2,4.827987615E-2
2.542629706E0,-2.899146080E-2,-1.209503412E-2,3.342056274E-2,4.586642197E-2
2.547695852E0,1.874324679E-2,4.739344120E-3,-1.673889160E-2,2.557266461E-2
2.552788508E0,-3.826022148E-4,-2.364888787E-2,-9.468078613E-3,2.547667158E-2
2.557859341E0,1.980900764E-3,-6.715953350E-3,7.245063782E-3,1.007566109E-2
2.562923143E0,-7.550537586E-3,-1.135396957E-2,2.144050598E-2,2.540902477E-2
2.567987727E0,-1.694801450E-2,-3.025642037E-2,-2.387428284E-2,4.210305868E-2
2.573069341E0,-1.449629664E-2,-3.939688206E-2,1.434135437E-2,4.436137258E-2
2.578095748E0,3.311777115E-2,1.562109590E-2,-9.531021118E-3,3.783709511E-2
2.583162727E0,1.387196779E-2,-1.058724523E-2,-2.370357513E-2,2.943434603E-2
2.588228977E0,-4.575550556E-4,2.519118786E-2,2.875709534E-2,3.823317714E-2
2.593295383E0,-1.709526777E-2,8.357524872E-3,-3.324508667E-2,3.830577228E-2
2.598364237E0,-2.603292465E-3,-2.965918183E-2,-4.009628296E-2,4.994152687E-2
2.603429289E0,-2.490222454E-3,-1.995688677E-2,-4.214382172E-2,4.669668346E-2
2.608499289E0,1.900425553E-2,1.596480608E-3,3.339767456E-3,1.936141847E-2
2.613559289E0,-4.875063896E-3,3.019431233E-2,1.044178009E-2,3.231862492E-2
2.618630123E0,-4.852086306E-3,-5.585491657E-3,-2.289676666E-2,2.406246833E-2
2.623729185E0,2.302110195E-3,-1.023253798E-2,-1.557636261E-2,1.877838164E-2
2.628770695E0,-2.433925867E-3,4.054814577E-3,-1.196861267E-3,4.878318693E-3
2.633824081E0,9.500831366E-3,2.308011055E-2,-1.306438446E-2,2.817153601E-2
2.638887831E0,-7.172703743E-3,2.304455638E-2,3.680229187E-3,2.441399895E-2
2.643960852E0,-7.128179073E-3,-3.223419189E-3,-1.060199738E-2,1.317587631E-2
2.649171008E0,-2.330839634E-3,-8.158385754E-4,-8.136749268E-3,8.503240243E-3
2.654081216E0,-2.845704556E-2,8.695870638E-3,1.434326172E-3,2.979058407E-2
2.659145800E0,-3.778931499E-2,-8.054524660E-3,1.805210114E-2,4.264722793E-2
2.664243404E0,5.324810743E-3,1.804378629E-2,-5.860328674E-3,1.970470211E-2
2.669309393E0,7.695287466E-3,1.784640551E-2,1.318931580E-2,2.348764973E-2
2.674371529E0,7.618427277E-3,3.449469805E-3,-1.780128479E-2,1.966786761E-2
2.679437154E0,-1.962453127E-3,2.485549450E-2,-3.396987915E-3,2.516319447E-2
2.684504862E0,2.792239189E-3,1.040017605E-2,-1.049518585E-2,1.503692747E-2
2.689546477E0,1.933318377E-2,1.042214036E-2,1.573085785E-2,2.701578970E-2
2.694638977E0,2.158224583E-2,2.696472406E-2,1.084613800E-2,3.620122081E-2
2.699702362E0,4.860103130E-3,1.243543625E-2,3.213024139E-2,3.479386568E-2
2.704770852E0,-7.073312998E-3,-9.097278118E-3,1.998329163E-2,2.306781676E-2
2.709839081E0,3.800386190E-2,-8.912205696E-3,1.507568359E-2,4.184491804E-2
2.714904185E0,1.861804724E-2,7.899969816E-3,1.495742798E-2,2.515483766E-2
2.719987518E0,-7.683306932E-3,5.461454391E-3,2.908706665E-2,3.057643105E-2
2.725041945E0,-1.460760832E-2,2.447283268E-2,1.933956146E-2,3.444300216E-2
2.730077154E0,1.390677691E-2,2.897539735E-2,9.678840637E-3,3.356563796E-2
2.735141998E0,-7.703423500E-3,2.166664600E-2,9.605407715E-3,2.492087759E-2
2.740199289E0,-2.433270216E-2,4.706412554E-3,4.769325256E-3,2.523840678E-2
2.745299758E0,4.466056824E-3,6.940692663E-3,-1.428318024E-2,1.649630613E-2
2.750370539E0,4.468172789E-3,4.484438896E-2,-2.289772034E-3,4.512457031E-2
2.755432727E0,1.381868124E-2,5.873113871E-2,1.911449432E-2,6.329033495E-2
2.760474550E0,8.883088827E-3,1.780644059E-2,-2.617931366E-2,3.288365943E-2
2.765541112E0,-3.397065401E-2,1.765650511E-2,-1.408290863E-2,4.079320804E-2
2.770628039E0,-2.657622099E-2,2.696207166E-2,2.861022949E-4,3.785935399E-2
2.775673143E0,-2.409321070E-2,5.364745855E-3,2.166748047E-2,3.284422338E-2
2.780738977E0,-2.577483654E-3,-4.124969244E-3,4.049682617E-2,4.078788697E-2
2.785804133E0,2.351492643E-2,-1.757711172E-3,-2.397918701E-2,3.363097863E-2
2.790871685E0,1.978427172E-3,7.816255093E-3,-4.278278351E-2,4.353589993E-2
2.795938456E0,-2.898976207E-2,-1.817080379E-2,1.222324371E-2,3.633169555E-2
2.801000852E0,2.073854208E-3,-8.507817984E-3,2.162551880E-2,2.333124303E-2
2.806068612E0,4.364788532E-3,2.244791389E-2,-1.418495178E-2,2.691046402E-2
2.811136060E0,-5.241006613E-3,-1.817256212E-2,7.314682007E-3,2.027843035E-2
2.816200591E0,1.622420549E-2,-1.801389456E-2,-3.788280487E-2,4.497590628E-2
2.821287779E0,1.370063424E-2,-8.251994848E-3,-2.568435669E-2,3.025704837E-2
2.826355956E0,6.442189217E-3,-5.754917860E-3,2.679443359E-2,2.815248751E-2
2.831428300E0,-1.025059819E-2,-2.000507712E-2,2.419376373E-2,3.302447695E-2
2.836488716E0,-1.735657454E-2,2.287435532E-2,2.614021301E-3,2.883261899E-2
2.841553560E0,-2.208477259E-2,1.252472401E-3,3.822708130E-2,4.416577421E-2
2.846621008E0,-3.013402224E-3,-1.128464937E-3,4.655838013E-3,5.659580698E-3
2.851684029E0,4.177600145E-3,-3.437489271E-3,-9.634971619E-3,1.104994812E-2
2.856751477E0,1.368182898E-2,-5.677372217E-3,-1.667690277E-2,2.230569626E-2
2.861817883E0,6.480485201E-3,-1.032400131E-2,-2.284049988E-3,1.240155538E-2
2.866882987E0,-3.088474274E-3,-1.018083096E-2,-3.314399719E-2,3.480966162E-2
2.871949133E0,-2.672672272E-2,-4.846453667E-4,-6.736755371E-3,2.756694508E-2
2.877012935E0,-2.408915758E-2,-2.175125480E-2,-1.142787933E-2,3.440931595E-2
2.882080070E0,1.648539305E-2,4.568159580E-3,1.004791260E-2,1.983927452E-2
2.887159498E0,-3.931522369E-4,-2.639263868E-3,-6.661415100E-3,7.175983109E-3
2.892219914E0,-4.497766495E-4,-9.734451771E-3,7.650375366E-3,1.238911190E-2
2.897262935E0,-2.942800522E-3,-1.920667291E-2,3.847122192E-2,4.309978278E-2
2.902318143E0,-2.442204952E-2,2.227753401E-3,-2.361297607E-2,3.404367823E-2
2.907415487E0,-4.784762859E-4,3.784513474E-2,-6.786346436E-3,3.845175758E-2
2.912480591E0,2.558913827E-2,-1.472923160E-2,-1.385402679E-2,3.261423492E-2
2.917544914E0,-5.518853664E-3,1.975238323E-3,7.639884949E-3,9.629493976E-3
2.922612623E0,4.120677710E-3,2.577129006E-2,-2.568244934E-2,3.661594708E-2
2.927677727E0,2.317959070E-2,-1.714822650E-2,-1.596641541E-2,3.295878514E-2
2.932728560E0,-7.910698652E-3,-2.418100834E-2,2.929973602E-2,3.880431482E-2
2.937787414E0,-1.493218541E-2,1.165863872E-2,1.004981995E-2,2.144511364E-2
2.942852362E0,-1.709190011E-2,4.335790873E-3,3.846359253E-2,4.231288317E-2
2.947918820E0,-9.939789772E-3,-1.227200031E-2,1.677131653E-2,2.303645959E-2
2.952989914E0,6.806284189E-3,6.835222244E-3,1.425361633E-2,1.721079156E-2
2.958065227E0,-9.944140911E-3,1.866102219E-2,2.126407623E-2,2.998800803E-2
2.963121008E0,9.132683277E-3,-5.190670490E-3,-2.889633179E-4,1.050868516E-2
2.968186581E0,8.989274502E-3,-9.791493416E-3,4.723167419E-2,4.906639835E-2
2.973253612E0,4.197716713E-3,1.874509454E-2,3.970718384E-2,4.410963436E-2
2.978317362E0,6.572723389E-3,-2.842396498E-3,-8.137702942E-3,1.083983947E-2
2.983383925E0,-1.007390022E-2,-5.243510008E-3,8.555412292E-3,1.421875319E-2
2.988451164E0,-1.475626230E-2,1.623496413E-2,-5.765914917E-3,2.268407178E-2
2.993515748E0,2.810874581E-2,1.842379570E-2,8.533477783E-3,3.467503543E-2
2.998582102E0,-6.992518902E-4,-2.205896378E-2,3.716468811E-3,2.238077247E-2
3.003681320E0,-2.208611369E-2,1.832872629E-3,4.406833649E-2,4.932721481E-2
3.008717310E0,-9.987682104E-3,1.850098372E-2,1.044464111E-2,2.347617346E-2
3.013801893E0,-5.743047595E-2,2.320528030E-2,-3.890037537E-3,6.206349163E-2
3.018871685E0,-3.088587523E-2,2.058926225E-2,-1.098346710E-2,3.871035466E-2
3.023937050E0,-1.876118779E-2,3.848254681E-3,8.114814758E-3,2.080003486E-2
3.028993352E0,-2.326709032E-2,1.332119107E-2,3.292083740E-3,2.701202397E-2
3.034070383E0,1.259437203E-2,2.276521921E-2,-1.573848724E-2,3.040679847E-2
3.039105070E0,2.435442805E-2,-2.493023872E-2,3.190517426E-2,4.725034511E-2
3.044174081E0,2.790689468E-4,-5.765229464E-3,2.213954926E-2,2.287958460E-2
3.049273873E0,7.440477610E-3,1.556062698E-2,1.719760895E-2,2.435675620E-2
3.054331841E0,2.415180206E-4,-1.322430372E-2,2.654933929E-2,2.966155689E-2
3.059400800E0,-4.253536463E-2,-8.412301540E-3,-3.306293488E-2,5.452688992E-2
3.064463300E0,1.244607568E-2,-1.308605075E-2,7.597923279E-3,1.959280384E-2
3.069513039E0,7.529050112E-3,-1.040190458E-3,5.164146423E-3,9.188960771E-3
3.074595852E0,-6.749927998E-3,1.399129629E-3,7.497787476E-3,1.018508266E-2
3.079661477E0,-9.032338858E-3,1.442402601E-3,-2.065658569E-3,9.377132602E-3
3.084728404E0,-1.895397902E-3,1.801210642E-2,-9.174346924E-3,2.030263905E-2
3.089795070E0,5.288749933E-3,-5.938261747E-3,-1.622867584E-2,1.807218161E-2
3.094858352E0,-1.894742250E-3,-3.560274839E-3,-1.841545105E-3,4.433609534E-3
3.099927362E0,5.232453346E-3,1.780000329E-2,-6.579399109E-3,1.968520200E-2
3.105005748E0,-9.131819010E-3,5.672395229E-3,5.351066589E-3,1.200833459E-2
3.110028352E0,9.933501482E-3,1.513013244E-2,1.718616486E-2,2.495915907E-2
3.115126425E0,2.651512623E-3,-8.648067713E-3,-9.080886841E-3,1.281725790E-2
3.120170227E0,4.937946796E-3,1.513040066E-2,1.712703705E-2,2.338049915E-2
3.125237623E0,-1.184895635E-2,7.830649614E-3,4.074192047E-2,4.314650535E-2
3.130320331E0,1.436787844E-2,-8.806049824E-3,2.396583557E-3,1.702134122E-2
3.135367570E0,4.629462957E-3,-1.549124718E-3,4.759788513E-3,6.818159675E-3
3.140433404E0,-9.677499533E-3,1.499125361E-2,9.468078613E-3,2.019990581E-2
3.145499029E0,1.409125328E-2,-4.239290953E-3,2.260208130E-3,1.488769786E-2
3.150585123E0,1.153314114E-2,-1.927971840E-3,1.174259186E-2,1.657162887E-2
3.155674237E0,1.627996564E-2,2.897515893E-2,4.513740540E-3,3.354058690E-2
3.160698560E0,1.375129819E-2,-2.095997334E-3,-2.647399902E-3,1.415980695E-2
3.165764341E0,8.920133114E-3,2.885621786E-2,1.400470734E-2,3.329237017E-2
3.170828248E0,-1.022335887E-2,4.049849510E-2,2.339267731E-2,4.787340100E-2
3.175894654E0,2.078312635E-2,1.398304105E-2,3.269672394E-2,4.118907057E-2
3.180959029E0,6.341516972E-3,4.367202520E-3,1.542091370E-3,7.852728261E-3
3.186033456E0,-2.682751417E-2,-3.652274609E-4,-2.460479736E-2,3.640391409E-2
3.191120904E0,-2.813994884E-3,-9.863704443E-3,-2.440166473E-2,2.646984084E-2
3.196177935E0,1.614418626E-2,2.115312219E-2,-9.939193726E-3,2.840557868E-2
3.201246425E0,-1.731038094E-2,4.355311394E-3,1.152610779E-2,2.124780427E-2
3.206309445E0,-2.425587177E-2,-9.931385517E-3,1.925468445E-3,2.628092773E-2
3.211375591E0,6.919622421E-3,2.034127712E-3,-5.220413208E-3,8.903457984E-3
3.216445643E0,-5.028516054E-3,-9.699076414E-3,-3.130054474E-2,3.315240803E-2
3.221503820E0,1.157736778E-2,-4.810094833E-3,1.172637939E-2,1.716625850E-2
3.226577154E0,9.090155363E-3,-1.648834348E-2,4.508972168E-3,1.936045519E-2
3.231644081E0,-2.663147449E-2,-1.391825080E-2,9.225845337E-3,3.143357061E-2
3.236708143E0,1.158386469E-2,1.243567467E-2,2.578353882E-2,3.088078366E-2
3.241779550E0,2.572533488E-2,7.688105106E-3,2.557468414E-2,3.708051084E-2
3.246842831E0,6.491482258E-3,5.199253559E-3,-3.146171570E-3,8.892129949E-3
3.251912362E0,-1.258453727E-2,2.781063318E-3,1.588535309E-2,2.045603417E-2
3.256977206E0,-7.746219635E-3,-9.067088366E-3,-1.987743378E-2,2.318034477E-2
3.262021008E0,1.848599315E-2,-8.988648653E-3,4.041671753E-3,2.094905386E-2
3.267080123E0,6.488680840E-3,5.370676517E-4,2.775955200E-2,2.851287688E-2
3.272174081E0,-1.020699739E-2,-1.680731773E-3,6.156921387E-3,1.203807859E-2
3.277240748E0,-2.201482654E-2,7.890373468E-3,-3.393173218E-3,2.363100094E-2
3.282306373E0,4.336446524E-3,-2.057483792E-2,3.765106201E-3,2.136129090E-2
3.287372258E0,-9.965687990E-3,-2.509728074E-2,-3.389358521E-3,2.721536678E-2
3.292407987E0,-3.355199099E-2,1.787221432E-2,-2.236938477E-2,4.410829308E-2
3.297477466E0,-1.903197169E-2,2.010384202E-2,-2.930927277E-2,4.031642197E-2
3.302546373E0,-9.490668774E-3,-4.425245523E-2,1.132202148E-2,4.665341101E-2
3.307613300E0,-1.898106933E-2,1.313206553E-2,-5.397796631E-3,2.370376228E-2
3.312680643E0,-4.634559155E-3,5.848973989E-3,-7.727622986E-3,1.074270880E-2
3.317746737E0,-2.181112766E-3,-2.987986803E-2,3.034210205E-2,4.264043765E-2
3.322833716E0,2.162706852E-2,-3.200575709E-2,3.721332550E-2,5.363702243E-2
3.327877154E0,1.667821407E-2,1.096946001E-2,6.019592285E-3,2.085011676E-2
3.332941737E0,-4.853397608E-3,2.033317089E-2,-8.285522461E-3,2.248651127E-2
3.338007831E0,2.373042703E-2,8.341014385E-3,1.078891754E-2,2.736980872E-2
3.343074602E0,2.118918300E-2,-1.075893641E-3,-3.205585480E-2,3.844108284E-2
3.348139654E0,1.993119717E-3,1.259386539E-3,-1.753711700E-2,1.769488778E-2
3.353208820E0,-9.861856699E-3,1.253932714E-3,2.774333954E-2,2.947068804E-2
3.358285591E0,3.772068024E-2,8.377343416E-3,3.757476807E-3,3.882200706E-2
3.363364289E0,-1.239559054E-2,1.073378325E-2,3.725051880E-3,1.681489754E-2
3.368408248E0,-1.215180755E-2,-2.018293738E-2,-2.719116211E-2,3.597744689E-2
3.373492050E0,9.425878525E-3,3.750115633E-3,-3.212928772E-3,1.064112139E-2
3.378556893E0,9.438723326E-3,1.317396760E-2,-3.191947937E-3,1.651761036E-2
3.383623300E0,1.889911294E-2,1.554679871E-2,1.821708679E-2,3.050805912E-2
3.388688925E0,-2.546846867E-3,1.077541709E-2,4.419803619E-2,4.556382826E-2
3.393757154E0,-9.568005800E-3,-1.777023077E-2,-8.433341980E-3,2.187347923E-2
3.398821216E0,-1.425698400E-2,-1.762148738E-2,-1.235008240E-3,2.270030078E-2
3.403887883E0,2.477824688E-3,-1.514613628E-2,-2.260684967E-2,2.732425134E-2
3.408952466E0,-2.358794212E-3,-5.460649729E-3,-3.191566467E-2,3.246524691E-2
3.414027987E0,-1.423206925E-2,2.304196358E-2,-7.895469666E-3,2.821032297E-2
3.419067310E0,-4.678249359E-3,8.599549532E-3,2.305507660E-2,2.504745149E-2
3.424127727E0,-4.701644182E-3,8.535116911E-3,-2.702045441E-2,2.872383392E-2
3.429217623E0,-4.672855139E-3,6.095707417E-3,1.121425629E-2,1.359237905E-2
3.434284185E0,-9.395360947E-3,1.301079988E-3,-1.025867462E-2,1.397161485E-2
3.439349550E0,1.927834749E-2,3.217509389E-2,3.258323669E-2,4.968459180E-2
3.444421164E0,-6.924152374E-3,1.528105140E-2,1.805400848E-2,2.464551968E-2
3.449476893E0,1.458525658E-4,-3.791391850E-3,-1.297092438E-2,1.351446648E-2
3.454551373E0,4.882901907E-3,-2.038350701E-2,2.514648438E-2,3.273645927E-2
3.459618560E0,2.505987883E-3,3.546804190E-3,3.556251526E-3,5.613084726E-3
3.464684445E0,-4.654318094E-3,8.273363113E-3,1.065444946E-2,1.426984609E-2
3.469758248E0,-2.120736241E-2,2.008494735E-2,-1.556777954E-2,3.309853608E-2
3.474794550E0,-4.414558411E-3,1.047223806E-2,-1.181602478E-3,1.142594768E-2
3.479863768E0,1.218846440E-2,2.226990461E-2,-4.630470276E-2,5.280750717E-2
3.484928456E0,-4.554659128E-3,1.021170616E-2,-3.157615662E-3,1.161870901E-2
3.490028143E0,7.350534201E-3,7.758349180E-3,6.371498108E-3,1.244260114E-2
3.495058768E0,9.706258774E-3,-1.749545336E-3,3.482532501E-2,3.619496692E-2
3.500124029E0,2.380889654E-2,-6.433278322E-3,3.659248352E-3,2.493272394E-2
3.505190643E0,1.884660125E-2,-4.051178694E-3,-2.012825012E-2,2.787028669E-2
3.510269810E0,-2.166005969E-2,-6.392329931E-3,-9.584426880E-4,2.260395275E-2
3.515322050E0,3.551578522E-2,-2.059161663E-2,-1.995372772E-2,4.564577664E-2
3.520387154E0,2.001583576E-3,5.768030882E-3,1.109504700E-2,1.266398772E-2
3.525472414E0,1.157879829E-2,-1.090371609E-2,3.000354767E-2,3.395839318E-2
3.530541789E0,2.577486634E-2,1.537525654E-2,-8.254051208E-3,3.112670252E-2
3.535586008E0,1.614895463E-2,2.010694146E-2,3.692626953E-3,2.605212706E-2
3.540651998E0,-1.477137208E-2,-1.431018114E-3,2.266216278E-2,2.708901748E-2
3.545725852E0,-1.466351748E-2,-3.791779280E-3,-1.791000366E-2,2.345558710E-2
3.550813768E0,-1.930522919E-2,-1.274943352E-3,-4.150962830E-2,4.579701514E-2
3.555870800E0,4.600673914E-3,1.779922843E-2,3.973960876E-3,1.880880374E-2
3.560936425E0,-1.202711463E-2,8.101701736E-3,-1.269149780E-2,1.927078550E-2
3.566002050E0,-4.865169525E-3,1.273819804E-2,2.067279816E-2,2.476481673E-2
3.571069237E0,2.118685842E-2,-2.289393544E-2,-1.037120819E-2,3.287213423E-2
3.576138768E0,-2.807587385E-3,-1.263976097E-3,-1.740646362E-2,1.767668403E-2
3.581204914E0,-1.942574978E-2,-1.248389482E-3,-2.913761139E-2,3.504166988E-2
3.586271841E0,4.478693008E-3,-5.931884050E-3,6.741523743E-3,1.003464408E-2
3.591338248E0,2.048224211E-3,-1.533183455E-2,-5.188941956E-3,1.631519206E-2
3.596402831E0,-9.970724583E-3,-1.985254884E-2,-2.176380157E-2,3.109987304E-2
3.601469341E0,-2.828359604E-3,6.394535303E-3,-7.328033447E-3,1.012866102E-2
3.606538873E0,-7.573515177E-3,1.104086637E-2,-2.389717102E-2,2.739221870E-2
3.611609445E0,-1.227912307E-2,1.094952226E-2,1.431179047E-2,2.180587644E-2
3.616668560E0,-2.391844988E-2,-1.527416706E-2,6.882476807E-2,7.444622975E-2
3.621710018E0,-1.655578613E-2,1.568609476E-2,-5.393981934E-3,2.343592679E-2
3.626773560E0,1.925691962E-2,1.556262374E-2,-2.974510193E-3,2.493735996E-2
3.631842570E0,2.145919204E-2,2.024120092E-2,8.930206299E-3,3.082128684E-2
3.636931320E0,9.389847517E-3,-1.302272081E-3,2.073383331E-2,2.279817959E-2
3.641997987E0,4.550129175E-3,1.782435179E-2,3.957080841E-2,4.363782843E-2
3.647063612E0,-2.540349960E-4,3.203606606E-2,3.212070465E-2,4.536643836E-2
3.652116581E0,-1.921457052E-2,8.423328400E-4,1.997089386E-2,2.772626636E-2
3.657195070E0,3.086879849E-2,-1.351952553E-2,7.920265198E-3,3.461778288E-2
3.662237310E0,4.517376423E-3,1.050692797E-2,-8.769035339E-3,1.441173847E-2
3.667303300E0,-1.454219222E-2,1.992216706E-2,3.182411194E-3,2.486957652E-2
3.672369445E0,-4.884362221E-3,2.688342333E-2,3.153800964E-3,2.750494328E-2
3.677434341E0,9.396761656E-3,7.660150528E-3,1.738166809E-2,2.119196596E-2
3.682502570E0,-2.983510494E-4,-1.950740814E-3,-3.739643097E-2,3.744846395E-2
3.687566945E0,2.171069384E-3,-1.380711794E-2,-2.521133423E-2,2.882640147E-2
3.692636945E0,1.876652241E-2,-1.759409904E-3,5.883216858E-3,1.974563565E-2
3.697701789E0,-2.654024959E-2,-1.589092612E-2,-1.286506653E-3,3.096064406E-2
3.702766216E0,-1.440212131E-2,1.518061757E-2,5.850791931E-3,2.172795467E-2
3.707833456E0,-2.367496490E-3,7.516443729E-4,1.047134399E-3,2.695644514E-3
3.712900070E0,-2.374038100E-2,-1.365911961E-2,1.528549194E-2,3.136596089E-2
3.717965383E0,-1.167765260E-2,5.620330572E-3,1.516532898E-2,1.994850593E-2
3.723055956E0,-1.391637325E-2,1.513308287E-2,-6.340026855E-3,2.151445054E-2
3.728113612E0,7.774740458E-3,-1.616775990E-3,1.033401489E-2,1.303274405E-2
3.733165435E0,5.705654621E-4,1.270690560E-2,3.638076782E-2,3.854025509E-2
3.738256529E0,5.505084991E-4,-8.723616600E-3,4.472732544E-4,8.752405358E-3
3.743315383E0,1.467508078E-2,5.600810051E-3,2.823829651E-3,1.595935722E-2
3.748384133E0,7.351577282E-3,2.217918634E-2,5.178451538E-3,2.393278830E-2
3.753448977E0,-4.548072815E-3,1.957175136E-2,-1.149749756E-2,2.315018072E-2
3.758514862E0,2.281069756E-4,3.052055836E-4,4.720687866E-4,6.066565584E-4
3.763580487E0,1.446425915E-2,1.218321919E-2,4.798030853E-2,5.157281871E-2
3.768645852E0,-1.412582397E-2,4.064312577E-2,-4.680633545E-3,4.328176182E-2
3.773714081E0,-2.109542489E-2,7.051974535E-3,-1.889610291E-2,2.918578423E-2
3.778784445E0,-9.002596140E-3,2.299368382E-3,-1.873779297E-2,2.091503568E-2
3.783850279E0,1.259335876E-2,6.982028484E-3,5.165100098E-3,1.529770131E-2
3.788917466E0,7.045865059E-4,1.173424721E-2,-2.004623413E-3,1.192507923E-2
3.793983612E0,7.380247116E-4,2.139359713E-3,3.364372253E-2,3.371975098E-2
3.799055227E0,-3.982245922E-3,-7.429927588E-3,9.604454041E-3,1.277918792E-2
3.804116685E0,1.029136777E-2,2.191215754E-3,2.400398254E-3,1.079238569E-2
3.809521164E0,-1.350784302E-2,-9.643793106E-3,-1.899909973E-2,2.522757141E-2
3.814217258E0,-3.959983587E-3,-1.906698942E-2,4.918098450E-3,2.008529930E-2
3.819312518E0,-3.939837217E-3,-3.546476364E-6,-2.252578735E-3,4.538330181E-3
3.824357623E0,-1.806682348E-2,-1.419767737E-2,-4.610061646E-3,2.343580214E-2
3.829429654E0,-1.075270772E-2,-3.060090542E-2,-3.782558441E-2,4.982781324E-2
3.834507831E0,-1.062613726E-2,-6.535440683E-3,3.138065338E-2,3.376939716E-2
3.839558664E0,1.082468033E-2,-8.803933859E-3,4.990577698E-3,1.481852966E-2
3.844623560E0,-1.061087847E-2,-1.342883706E-2,4.949569702E-3,1.781635897E-2
3.849692310E0,1.559564471E-2,-1.320764422E-2,-9.339332581E-3,2.246973816E-2
3.854752779E0,6.057262421E-3,-1.160651445E-3,2.614974976E-3,6.698927820E-3
3.859821945E0,-2.246513963E-2,-3.435570002E-2,-3.541469574E-2,5.421436430E-2
3.864885643E0,-1.279583573E-2,3.989785910E-3,5.159378052E-4,1.341335139E-2
3.869958039E0,3.010985255E-2,-1.018732786E-2,1.714420319E-2,3.611521248E-2
3.875018300E0,1.796844602E-2,-1.949548721E-2,1.225662231E-2,2.920896890E-2
3.880084133E0,-1.250475645E-3,-2.635040879E-2,1.453781128E-2,3.012068541E-2
3.885153091E0,1.072916389E-2,1.673814654E-2,-4.022026062E-2,4.486590991E-2
3.890228925E0,1.073136926E-2,-1.902934909E-2,-1.613426208E-2,2.715866024E-2
3.895283664E0,-1.550659537E-2,-3.074777126E-2,1.250839233E-2,3.663795595E-2
3.900347466E0,1.316347718E-2,9.841203690E-3,-4.228591919E-3,1.697078110E-2
3.905415435E0,6.018638611E-3,-2.009212971E-3,1.956272125E-2,2.056601591E-2
3.910471060E0,1.075637341E-2,-6.688714027E-3,-1.385688782E-2,1.877369980E-2
3.915564758E0,-6.084531546E-3,1.242440939E-2,1.239776611E-2,1.857665410E-2
3.920631164E0,-3.616511822E-3,7.577002048E-3,3.367233276E-2,3.470325794E-2
3.925698612E0,1.545727253E-2,-2.331095934E-2,1.354217529E-4,2.797045653E-2
3.930766320E0,3.907346725E-2,1.020017266E-2,-2.599334717E-2,4.802534188E-2
3.935830123E0,-8.676350117E-3,-4.137367010E-3,7.476806641E-3,1.217782799E-2
3.940895227E0,-2.276831865E-2,-1.360216737E-2,-4.010009766E-2,4.807736602E-2
3.945961373E0,-5.910485983E-3,3.249168396E-3,-1.753807068E-3,6.968986946E-3
3.951028560E0,-1.769474149E-2,-1.814836264E-2,1.726341248E-2,3.066744777E-2
3.956096789E0,1.496344805E-3,-2.026334405E-2,-3.513813019E-2,4.058978139E-2
3.961160487E0,-1.035937667E-2,6.193339825E-3,-8.708000183E-3,1.488299064E-2
3.966225070E0,-3.010243177E-3,8.671998978E-3,-8.633613586E-3,1.260176233E-2
3.971300591E0,-3.372576833E-2,1.810476184E-2,-4.182434082E-2,5.669643142E-2
3.976364393E0,-5.108118057E-5,-1.546135545E-2,-3.673744202E-2,3.985844663E-2
3.981408195E0,-1.636147499E-5,-5.777835846E-3,1.577377319E-3,5.989304965E-3
3.986468612E0,-1.423260570E-2,-1.280134916E-2,-1.506328583E-2,2.435865729E-2
3.991561789E0,-4.681974649E-3,-7.942914963E-3,1.357173920E-2,1.640740350E-2
3.996626112E0,2.418816090E-3,-1.019516587E-2,-3.164291382E-3,1.094553874E-2
4.001691477E0,4.863172770E-3,-2.980738878E-3,-1.739597321E-2,1.830724276E-2
4.006757362E0,-2.267092466E-3,2.075025439E-2,3.738307953E-2,4.281597133E-2
4.011820331E0,6.005167961E-5,6.326973438E-3,1.569557190E-2,1.692291867E-2
4.016865904E0,7.225364447E-3,1.345774531E-2,-8.190155029E-3,1.733191968E-2
4.021929914E0,4.763579369E-2,1.097074151E-2,-3.900718689E-2,6.253868114E-2
4.027051945E0,3.064736724E-2,-1.282051206E-2,-7.799148560E-3,3.412408777E-2
4.032071268E0,4.300028086E-3,8.671134710E-3,8.893966675E-3,1.314463624E-2
4.037134237E0,9.054571390E-3,6.228387356E-3,-5.434036255E-3,1.225996828E-2
4.042199862E0,-4.861652851E-4,1.573359966E-2,4.114151001E-3,1.626987257E-2
4.047265748E0,1.370379329E-2,2.985858917E-2,2.783870697E-2,4.306184975E-2
4.052332518E0,1.357683539E-2,2.491581440E-2,-8.964538574E-4,2.838893968E-2
4.057399654E0,-1.268243790E-2,1.040571928E-2,-2.464675903E-2,2.960719432E-2
4.062465904E0,-2.198502421E-2,1.982837915E-2,-7.816314697E-3,3.062026592E-2
4.067531685E0,-9.939342737E-3,3.867030144E-2,6.503105164E-3,4.045334503E-2
4.072601945E0,2.058088779E-3,2.177426219E-2,-5.427360535E-3,2.253465033E-2
4.077661268E0,-9.747892618E-3,-6.806731224E-3,-1.250839233E-2,1.725725584E-2
4.082726008E0,-2.145537734E-2,-1.996040344E-3,-5.280494690E-3,2.218560385E-2
4.087801268E0,1.197057962E-2,1.708430052E-2,6.643295288E-3,2.189295487E-2
4.092877727E0,1.369118690E-4,2.887687087E-2,-1.717185974E-2,3.359710081E-2
4.097942050E0,-2.148360014E-3,7.313489914E-3,-3.995895386E-4,7.632971719E-3
4.103020435E0,-4.025873542E-2,-1.169666648E-2,1.624011993E-2,4.495908451E-2
4.108082414E0,5.199193954E-3,9.785681963E-3,-1.240158081E-2,1.663100706E-2
4.113130123E0,1.242789626E-2,-4.541903734E-3,9.076118469E-3,1.604547978E-2
4.118184029E0,-1.134231687E-2,-9.200304747E-3,3.275489807E-2,3.586331143E-2
4.123276945E0,-6.409704685E-3,-1.382163167E-2,-2.690792084E-2,3.092180493E-2
4.128345175E0,5.560725927E-3,-3.508126736E-2,-1.955795288E-2,4.054787927E-2
4.133408977E0,-1.572906971E-3,8.131980896E-3,-7.512092590E-3,1.118189093E-2
4.138475383E0,3.126382828E-3,-6.079792976E-3,-7.441520691E-3,1.010516613E-2
4.143541737E0,-1.106145978E-2,-3.210291266E-2,-2.629280090E-3,3.405680560E-2
4.148607623E0,1.277089119E-2,6.123989820E-3,6.892204285E-3,1.575123465E-2
4.153640227E0,-1.650810242E-3,-3.370314837E-3,1.396751404E-2,1.446290583E-2
4.158741737E0,-1.595020294E-3,-1.510772109E-2,-9.901046753E-3,1.813334092E-2
4.163806841E0,-1.590225101E-2,4.077404737E-3,-5.061149597E-3,1.717911673E-2
4.168872466E0,-3.803104162E-3,-3.080308437E-3,-3.115367889E-2,3.153575130E-2
4.173937831E0,1.996874809E-2,-2.205607295E-2,-2.386093140E-3,2.984819416E-2
4.179012831E0,1.978710294E-2,-2.899602056E-2,-3.562259674E-2,5.001267889E-2
4.184075591E0,5.460321903E-3,1.648995280E-2,-4.007625580E-2,4.367882711E-2
4.189129914E0,-4.048109055E-3,-7.345855236E-3,3.017425537E-3,8.913676735E-3
4.194193508E0,5.574285984E-3,4.697829485E-3,-1.363563538E-2,1.546197976E-2
4.199243352E0,1.037001610E-2,2.288162708E-3,1.023006439E-2,1.474541081E-2
4.204312310E0,2.467796206E-2,1.662942767E-2,7.768630981E-3,3.075534594E-2
4.209394810E0,-1.587483287E-2,2.831915021E-2,7.699966431E-3,3.336576195E-2
4.214444029E0,-1.502007246E-3,1.626238227E-2,1.951599121E-2,2.544788824E-2
4.219512779E0,3.300905228E-3,-9.946882725E-3,1.460361481E-2,1.797503871E-2
4.224599810E0,-6.244003773E-3,-2.543330193E-4,-1.877021790E-2,1.978315820E-2
4.229651320E0,3.346920013E-3,-1.202315092E-2,-9.108543396E-3,1.545068265E-2
4.234710018E0,-1.392751932E-3,-2.849468589E-2,5.221366882E-3,2.900257840E-2
4.239778091E0,8.212417364E-3,-2.339690924E-2,-1.947402954E-3,2.487270671E-2
4.244843560E0,-8.497536182E-3,-1.364266872E-2,-2.805995941E-2,3.233715902E-2
4.249915383E0,1.060959697E-2,-4.080474377E-3,-2.545452118E-2,2.787734685E-2
4.254976425E0,-6.122767925E-3,-1.364982128E-2,-2.049446106E-2,2.537378258E-2
4.260044966E0,-5.116763711E-2,6.700754166E-4,3.431034088E-2,6.160986593E-2
4.265113039E0,1.555055380E-3,7.739692926E-3,1.026535034E-2,1.294984407E-2
4.270167623E0,1.815325022E-2,2.905568480E-2,2.680969238E-2,4.350325182E-2
4.275256373E0,1.556125283E-2,-2.011060715E-3,2.896785736E-2,3.294440339E-2
4.280324862E0,1.314997673E-2,-6.738156080E-3,4.966735840E-3,1.558823596E-2
4.285391529E0,-2.477505803E-2,5.198538303E-3,-1.883697510E-2,3.155407948E-2
4.290458195E0,-8.259713650E-4,5.108147860E-3,2.170181274E-2,2.231017883E-2
4.295522258E0,1.099130511E-2,2.653002739E-4,9.644508362E-3,1.462517398E-2
4.300587883E0,-1.282119751E-2,1.684045792E-2,1.193618774E-2,2.429931493E-2
4.305654550E0,-1.505303383E-2,1.907852292E-2,1.658725739E-2,2.942313668E-2
4.310723820E0,-3.062665462E-3,1.179793477E-2,-3.818798065E-2,4.008607053E-2
4.315790748E0,6.497025490E-3,-2.607196569E-3,1.354217529E-4,7.001939247E-3
4.320854914E0,-5.345880985E-3,1.647377014E-2,7.259368896E-3,1.877929666E-2
4.325920800E0,1.136431098E-2,1.169246435E-2,2.450942993E-3,1.648843256E-2
4.330996060E0,-5.376815796E-3,-2.709716558E-3,4.804611206E-3,7.703051394E-3
4.336054654E0,1.779377460E-3,6.765872240E-3,2.139186859E-2,2.250678238E-2
4.341093508E0,8.927851915E-3,6.660521030E-3,-1.679897308E-2,2.015625404E-2
4.346158352E0,2.562084794E-2,-1.952520013E-2,-4.786491394E-3,3.256642119E-2
4.351252570E0,-3.012120724E-3,1.157256961E-2,1.663208008E-2,2.048470957E-2
4.356317935E0,1.751273870E-3,4.354536533E-3,-9.636878967E-3,1.071906642E-2
4.361384081E0,-1.955172420E-2,1.620095968E-2,1.657104492E-2,3.032062901E-2
4.366451268E0,9.104877710E-3,4.245400429E-3,-2.394866943E-2,2.597038680E-2
4.371498195E0,-9.988009930E-3,2.084383368E-2,-1.662254333E-2,2.846989097E-2
4.376583820E0,-9.867787361E-3,3.497850895E-2,-1.885795593E-2,4.094498526E-2
4.381629862E0,-7.370829582E-3,1.573961973E-2,1.455783844E-2,2.267146705E-2
4.386692987E0,-8.901953697E-5,-1.013100147E-3,-6.947517395E-3,7.021559253E-3
4.391759445E0,1.177906990E-2,-9.453594685E-4,2.614974976E-3,1.210282142E-2
4.396824393E0,-7.231980562E-3,-8.006989956E-3,-2.591419220E-2,2.807060363E-2
4.401891998E0,1.656842232E-2,6.420046091E-3,-1.619052887E-2,2.403877773E-2
4.406960539E0,2.266138792E-3,4.045963287E-3,-3.505992889E-2,3.536529115E-2
4.412025904E0,-1.671773195E-2,-1.018387079E-2,1.749515533E-2,2.625403295E-2
4.417094966E0,-1.421564817E-2,1.371353865E-2,3.160572052E-2,3.727019405E-2
4.422150487E0,-6.985753775E-3,1.365411282E-2,3.609561920E-2,3.921899129E-2
4.427211373E0,-1.169133186E-2,-1.015800238E-2,9.667396545E-3,1.825734945E-2
4.432292258E0,5.121648312E-3,2.086159587E-2,-9.418487549E-3,2.345517792E-2
4.437354445E0,-1.378682256E-2,1.788228750E-3,2.391624451E-2,2.766335102E-2
4.442422675E0,1.729664207E-2,3.751131892E-2,-2.412796021E-3,4.137746317E-2
4.447499341E0,2.884030342E-3,2.062505484E-2,-4.765510559E-3,2.136400264E-2
4.452571320E0,-8.928596973E-3,-7.998257875E-3,4.775047302E-3,1.290321858E-2
4.457635904E0,-1.821532845E-2,2.290117741E-2,-2.384185791E-5,2.926196654E-2
4.462702570E0,-1.554450393E-2,1.564085484E-2,1.185131073E-2,2.503440649E-2
4.467768977E0,-3.443390131E-3,1.087084413E-2,1.412868500E-2,1.815631921E-2
4.472835123E0,-8.022278547E-3,1.083737612E-2,2.350997925E-2,2.710211797E-2
4.477900487E0,6.282567978E-3,1.787653565E-2,1.143741608E-2,2.213268339E-2
4.482967935E0,1.101574302E-2,-1.276016235E-3,-5.359649658E-4,1.110234525E-2
4.488007935E0,1.456081867E-3,1.162648201E-3,8.971214294E-3,9.162674891E-3
4.493076060E0,-1.039683819E-2,1.551330090E-2,-3.623485565E-2,4.076421854E-2
4.498140643E0,-7.843285799E-3,1.306560636E-2,-2.676010132E-3,1.547217605E-2
4.503238508E0,1.839256287E-2,2.241149545E-2,5.673027039E-2,6.370937980E-2
4.508304393E0,-1.492682099E-2,2.940848470E-2,4.675483704E-2,5.721611437E-2
4.513368195E0,-1.703450084E-2,1.501935720E-2,-1.777553558E-2,2.883964242E-2
4.518433820E0,-4.973113537E-3,-2.780619264E-2,-1.762676239E-2,3.329593007E-2
4.523499445E0,-1.671552658E-2,-3.759860992E-3,5.853652954E-2,6.099238210E-2
4.528565591E0,-2.836248279E-2,8.206248283E-3,-4.172420502E-2,5.111440330E-2
4.533631216E0,-4.279345274E-3,-1.075726748E-2,-2.712249756E-2,2.949002328E-2
4.538695539E0,-6.527841091E-3,-1.768508554E-2,6.361961365E-3,1.989596723E-2
4.543764550E0,2.222874761E-2,8.598208427E-3,2.530574799E-2,3.476244079E-2
4.548828091E0,7.029771805E-4,1.080295444E-2,-1.042366028E-3,1.087586909E-2
4.553881373E0,-3.484717011E-2,1.784241199E-2,-4.854869843E-2,6.236708306E-2
4.558942154E0,-1.076459885E-2,-3.631204367E-3,1.599693298E-2,1.962050199E-2
4.564013300E0,-1.053124666E-2,-1.063942909E-3,-7.629394531E-4,1.061231395E-2
4.569077050E0,-2.692878246E-2,-8.124619722E-3,-2.213954926E-2,3.579564795E-2
4.574140487E0,-5.290120840E-3,6.249099970E-3,1.367855072E-2,1.594174955E-2
4.579205748E0,4.293024540E-3,-3.250211477E-3,-1.256561279E-2,1.367071905E-2
4.584270904E0,6.729066372E-3,3.484681249E-2,6.542205811E-3,3.608851800E-2
4.589335748E0,-2.649065852E-2,1.318377256E-2,-5.052947998E-2,5.855591512E-2
4.594405018E0,1.420322061E-2,2.025553584E-2,1.878166199E-2,3.106073139E-2
4.599473820E0,-1.675778627E-2,3.462970257E-3,-3.126239777E-2,3.563920703E-2
4.604538925E0,-1.415362954E-2,-1.789078116E-2,-6.426048279E-2,6.818955146E-2
4.609618977E0,-6.869643927E-3,-4.381534457E-2,-3.046703339E-2,5.380721653E-2
4.614669289E0,-6.877034903E-3,-7.760226727E-3,4.818534851E-2,4.928836109E-2
4.619737987E0,5.045175552E-3,1.363718510E-2,-6.855964661E-3,1.607578506E-2
4.624811268E0,2.167123556E-2,-1.972898841E-2,2.883338928E-2,4.111252573E-2
4.629880695E0,-9.302318096E-3,-2.901175618E-2,8.583068848E-5,3.046674393E-2
4.634962675E0,-1.394128799E-2,-2.396595478E-2,6.422519684E-2,6.995428799E-2
4.640030643E0,-1.859143376E-2,-6.008148193E-5,-1.232910156E-2,2.230810984E-2
4.645055175E0,1.005488634E-2,-4.756182432E-3,-9.847640991E-3,1.485590939E-2
4.650121581E0,-9.045958519E-3,-1.880848408E-2,-3.588771820E-2,4.151525932E-2
4.655214498E0,-8.931070566E-3,-1.373857260E-2,-1.895427704E-2,2.505547877E-2
4.660281164E0,-3.732377291E-2,1.251181960E-2,1.446056366E-2,4.193706660E-2
4.665345748E0,-1.559603214E-2,-8.917361498E-3,7.213592529E-3,1.935953181E-2
4.670412675E0,2.980780602E-2,-6.310462952E-3,-2.847766876E-2,4.170497405E-2
4.675479341E0,-8.516520262E-3,-2.515509725E-2,1.690292358E-2,3.148045204E-2
4.680547779E0,-6.139785051E-3,-3.460675478E-3,-1.648902893E-2,1.793213067E-2
4.685614445E0,1.052737236E-2,-8.230000734E-3,-3.060626984E-2,3.339614101E-2
4.690680591E0,1.290413737E-2,-2.235966921E-2,-1.847362518E-2,3.174502159E-2
4.695745175E0,5.761355162E-3,-5.487501621E-3,1.731204987E-2,1.905289894E-2
4.700812883E0,-6.229221821E-3,-2.957046032E-3,1.480007172E-2,1.632756713E-2
4.705875123E0,1.043379307E-2,-1.728898287E-2,-4.471588135E-2,4.906407047E-2
4.710960279E0,9.887814522E-4,1.147109270E-2,-3.959655762E-3,1.217548891E-2
4.716017310E0,1.042041183E-2,2.811536193E-2,-2.054786682E-2,3.634932448E-2
4.721052518E0,1.026666164E-2,2.080905437E-2,-1.324462891E-2,2.671780830E-2
4.726112675E0,7.844835520E-3,2.776724100E-2,-3.632545471E-3,2.908189306E-2
4.731211529E0,-8.862107992E-3,3.466749191E-2,5.341148376E-2,6.428964576E-2
4.736255123E0,7.011890411E-4,4.156205058E-2,1.258468628E-2,4.343121047E-2
4.741316789E0,1.498538256E-2,4.121857882E-2,1.723003387E-2,4.712119478E-2
4.746382675E0,-1.781016588E-3,1.480123401E-2,7.586479187E-3,1.672731941E-2
4.751453508E0,-6.579726934E-3,-6.642699242E-3,-3.047943115E-2,3.188124814E-2
4.756552675E0,5.337476730E-3,4.373192787E-4,-2.547740936E-2,2.603417550E-2
4.761604185E0,5.267262459E-4,-2.094331384E-2,-1.813697815E-2,2.771010306E-2
4.766647831E0,-1.132351160E-2,1.011180878E-2,-1.561164856E-2,2.177599969E-2
4.771716268E0,-1.124435663E-2,-1.129731536E-2,-4.160881042E-2,4.455735624E-2
4.776783716E0,1.491293311E-2,5.731582642E-4,1.496315002E-3,1.499876805E-2
4.781848664E0,-6.556719542E-3,-1.141273975E-2,6.324100494E-2,6.459617563E-2
4.786916633E0,-2.774325013E-2,2.988368273E-3,-1.568222046E-2,3.200859746E-2
4.791982206E0,5.834430456E-3,6.428956985E-4,-3.455638885E-2,3.505136095E-2
4.797046789E0,-1.798480749E-2,-1.787215471E-3,2.986907959E-2,3.491145020E-2
4.802113300E0,1.065877080E-2,-4.142880440E-3,-1.313877106E-2,1.741838564E-2
4.807164081E0,-6.069093943E-3,7.776468992E-3,-4.628562927E-2,4.732511858E-2
4.812236164E0,-3.606081009E-3,-6.486535072E-3,6.362915039E-3,9.775768271E-3
4.817331164E0,1.784089208E-2,-8.857518435E-3,2.768611908E-2,3.410680654E-2
4.822399654E0,-1.322388649E-3,1.260325313E-2,2.983188629E-2,3.241191356E-2
4.827466581E0,-1.077419519E-2,-1.605534554E-2,-2.030658722E-2,2.803952366E-2
4.832529341E0,-3.683054447E-2,-1.106348634E-2,3.688049316E-2,5.328283506E-2
4.837594185E0,8.489787579E-3,-1.329401135E-2,4.370784760E-2,4.646701166E-2
4.842663977E0,-5.899071693E-3,-8.375018835E-3,-1.603984833E-2,1.903199206E-2
4.847730904E0,-3.487169743E-3,1.254022121E-3,-3.253173828E-2,3.274212760E-2
4.852797050E0,-3.423690796E-3,-3.402620554E-3,-1.800251007E-2,1.863839731E-2
4.857862675E0,2.271810174E-2,3.805160522E-3,5.905151367E-3,2.377944924E-2
4.862931425E0,1.538449526E-2,-8.155584335E-3,2.248287201E-2,2.843722532E-2
4.867994706E0,3.308922052E-3,2.986964583E-2,5.666732788E-3,3.058196475E-2
4.873068664E0,-3.912687302E-3,-1.091700792E-2,-2.289104462E-2,2.566106209E-2
4.878129602E0,-4.190385342E-2,3.430038691E-3,-7.971286774E-2,9.012124821E-2
4.883165070E0,-1.077234745E-3,3.196674585E-2,-3.628921509E-2,4.837293052E-2
4.888229133E0,5.939006805E-3,7.171332836E-4,4.953289032E-2,4.989281817E-2
4.893324393E0,3.446280956E-3,6.092786789E-4,-4.827976227E-2,4.840644087E-2
4.898391320E0,-3.776371479E-3,7.733672857E-3,3.526973724E-2,3.630461462E-2
4.903457466E0,8.067935705E-3,-1.827955246E-3,2.785205841E-2,2.905460660E-2
4.908523091E0,-1.349848509E-2,1.001575589E-2,8.701133728E-2,8.861995983E-2
4.913582883E0,-1.335406303E-2,-4.478394985E-3,-2.774810791E-2,3.111823443E-2
4.918634966E0,-2.518758178E-2,2.584517002E-3,-3.227043152E-2,4.101798087E-2
4.923703820E0,-2.277371287E-2,1.940310001E-2,-1.101493835E-3,2.993886399E-2
4.928781477E0,-6.022632122E-3,3.443956375E-4,-1.084327698E-3,6.129149418E-3
4.933833248E0,-1.316371560E-2,2.167439461E-2,3.930854797E-2,4.677846442E-2
4.938896477E0,1.771351695E-2,9.727299213E-3,3.661441803E-2,4.182110281E-2
4.943968716E0,2.003052831E-2,3.108111024E-2,-4.208374023E-2,5.602052008E-2
4.949036373E0,1.520395279E-2,3.800582886E-2,-1.085186005E-2,4.234815314E-2
4.954116373E0,3.181904554E-3,2.586439252E-2,-2.501201630E-2,3.612052431E-2
4.959185800E0,1.506507397E-2,2.084428072E-2,-1.051902771E-3,2.573998819E-2
4.964229810E0,-8.779138327E-3,1.565396786E-3,1.325607300E-3,9.015596018E-3
4.969298508E0,-8.669108152E-3,-3.195852041E-3,-4.144668579E-2,4.246403972E-2
4.974360383E0,-2.048727870E-2,1.821562648E-2,5.629634857E-2,6.261642356E-2
4.979426685E0,-3.220945597E-2,-2.464091778E-2,3.207492828E-2,5.170517292E-2
4.984498560E0,-2.720522881E-2,-2.448484302E-2,-2.758312225E-2,4.583078272E-2
4.989552727E0,-3.633752465E-2,-1.007455587E-2,1.302242279E-2,3.989355674E-2
4.994640539E0,-2.173954248E-2,-5.127787590E-3,-3.221797943E-2,3.920331761E-2
4.999725435E0,-1.449686289E-2,-1.922869682E-2,3.690719604E-3,2.436233212E-2
5.004781685E0,-1.908788085E-2,-7.185786963E-3,-3.466606140E-3,2.068816299E-2
5.009816893E0,-2.607542276E-2,-9.554594755E-3,-1.531791687E-2,3.171524130E-2
5.014881477E0,-1.880368590E-2,4.776865244E-3,1.331996918E-2,2.353335131E-2
5.019976477E0,-9.157717228E-3,-1.896092296E-2,3.708839417E-3,2.138073605E-2
5.025041060E0,-2.809602022E-2,-2.354690433E-2,-2.720260620E-2,4.564893032E-2
5.030112414E0,3.111630678E-3,2.837359905E-3,3.241157532E-2,3.268398800E-2
5.035173612E0,1.737573743E-2,1.231873035E-2,-3.492355347E-3,2.158388090E-2
5.040241216E0,1.019331813E-2,4.988133907E-3,-2.247619629E-2,2.517865393E-2
5.045309706E0,1.251837611E-2,9.698361158E-3,2.522087097E-2,2.978019950E-2
5.050374550E0,2.899169922E-3,-2.255141735E-3,8.382797241E-3,9.152165868E-3
5.055440435E0,-1.938462257E-3,-2.360910177E-2,3.444671631E-2,4.180578413E-2
5.060506320E0,-1.381522417E-2,-1.871046424E-2,3.274917603E-3,2.348759196E-2
5.065573508E0,7.664531469E-3,-1.855167747E-2,-3.877639771E-3,2.044372446E-2
5.070638873E0,2.896773815E-2,-6.462335587E-3,1.278591156E-2,3.231673203E-2
5.075717518E0,2.582639456E-3,4.348278046E-2,8.029937744E-4,4.356681101E-2
5.080777675E0,-7.003366947E-3,1.462107897E-2,7.991790771E-4,1.623150597E-2
5.085818352E0,-1.181489229E-2,1.930499077E-2,-6.326675415E-3,2.350108870E-2
5.090887883E0,-1.410719752E-2,1.212459803E-2,1.748752594E-2,2.553100983E-2
5.095961164E0,1.925262809E-2,1.424548030E-2,4.584121704E-2,5.172054309E-2
5.101010695E0,9.626775980E-3,4.728332162E-2,1.457118988E-2,5.040542524E-2
5.106078039E0,-1.422157884E-2,2.313891053E-2,-9.305000305E-3,2.870967635E-2
5.111149237E0,-2.842366695E-2,2.770000696E-2,3.591060638E-2,5.352351707E-2
5.116213612E0,-2.019047737E-3,6.040155888E-3,-1.427841187E-2,1.563435583E-2
5.121283404E0,-9.087055922E-3,2.262568474E-2,-1.891040802E-2,3.085611328E-2
5.126346529E0,-9.024083614E-3,1.769107580E-2,-2.587890625E-2,3.262094476E-2
5.131411841E0,1.231405139E-2,-2.283549309E-2,5.510902405E-2,6.091059134E-2
5.136476893E0,5.067169666E-3,-2.971899509E-2,-7.110595703E-3,3.097507787E-2
5.141540487E0,-1.400187612E-2,-1.759716868E-2,7.203102112E-3,2.361350377E-2
5.146608560E0,-2.074867487E-3,-2.700188756E-2,1.426982880E-2,3.061102776E-2
5.151681008E0,-2.350234985E-2,-3.632619977E-2,1.177501678E-2,4.483976203E-2
5.156748560E0,-4.317432642E-3,-2.646633983E-2,2.177238464E-3,2.690441852E-2
5.161805904E0,-2.804958820E-2,2.317637205E-3,-2.126693726E-4,2.814597785E-2
5.166911633E0,-1.837903261E-2,-4.823267460E-3,-3.346633911E-2,3.848439427E-2
5.171926477E0,-2.531597018E-2,-2.507835627E-3,-2.606678009E-2,3.642340745E-2
5.177024341E0,-1.081714034E-2,6.963551044E-3,-9.224891663E-3,1.583035674E-2
5.182090487E0,1.776665449E-2,9.233921766E-3,-6.773948669E-3,2.113777906E-2
5.187153248E0,1.047921181E-2,-2.360343933E-4,-1.146316528E-2,1.553298911E-2
5.192221216E0,1.037910581E-2,1.412835717E-2,1.951980591E-2,2.623659918E-2
5.197287362E0,-1.352763176E-2,-1.216739416E-2,2.728462219E-3,1.839801097E-2
5.202353248E0,-1.497894526E-3,-7.362037897E-3,-9.175300598E-3,1.185872805E-2
5.207418873E0,1.987922192E-2,-2.630212903E-2,-1.971244812E-3,3.302834028E-2
5.212485279E0,6.916224957E-4,-7.130026817E-3,-1.858520508E-2,1.991796857E-2
5.217554029E0,-4.134982824E-3,1.900893450E-2,-1.367950439E-2,2.378164238E-2
5.222620175E0,-6.488829851E-3,-1.207855344E-2,1.493930817E-2,2.027755642E-2
5.227669550E0,7.751375437E-3,-4.900366068E-3,4.569625854E-2,4.660735407E-2
5.232758716E0,1.474088430E-2,-9.612023830E-3,1.918697357E-2,2.603506534E-2
5.237818873E0,1.703038812E-2,-9.581089020E-3,1.902294159E-2,2.727093128E-2
5.242862154E0,-1.638421416E-2,1.663252711E-2,-1.676750183E-2,2.874426116E-2
5.247925956E0,-1.145973802E-2,4.567027092E-3,-1.907348633E-6,1.233626100E-2
5.253017831E0,5.356401205E-3,2.105802298E-2,4.739761353E-3,2.223953019E-2
5.258084237E0,2.192533016E-2,4.939183593E-2,-2.425193787E-3,5.409394720E-2
5.263150383E0,4.942327738E-3,3.472986817E-2,-4.773139954E-3,3.540301134E-2
5.268217310E0,-6.991773844E-3,2.013802528E-2,-2.611541748E-2,3.371112567E-2
5.273284654E0,-2.352049947E-2,8.151710033E-3,3.586673737E-2,4.365875767E-2
5.278327518E0,1.704445481E-2,-1.086580753E-2,2.606868744E-2,3.298720476E-2
5.283394029E0,2.169284225E-2,2.253937721E-2,2.110099792E-2,3.773400381E-2
5.288470175E0,-1.402699947E-2,1.998314261E-2,-7.584571838E-3,2.556576682E-2
5.293527466E0,-2.342256904E-2,1.269710064E-2,-3.938674927E-4,2.664560445E-2
5.298594393E0,1.719605923E-2,3.198325634E-3,2.336788177E-2,2.918889581E-2
5.303657623E0,1.466202736E-2,-6.327629089E-3,-5.521774292E-2,5.748054514E-2
5.308747466E0,1.695486903E-2,-1.814755797E-2,-7.247924805E-3,2.587148736E-2
5.313791789E0,4.871279001E-3,1.116663218E-3,4.697799683E-3,6.858980807E-3
5.318858612E0,-2.360790968E-3,1.299005747E-2,2.285957336E-3,1.339927341E-2
5.323921529E0,1.437902451E-2,8.135706186E-3,4.638671875E-3,1.715993408E-2
5.329020956E0,-9.509056807E-3,-8.503377438E-3,-3.578090668E-2,3.798687763E-2
5.334051998E0,2.138537169E-2,2.487960458E-2,3.341388702E-2,4.682752067E-2
5.339117883E0,-2.617985010E-3,2.467301488E-2,1.651000977E-2,2.980254907E-2
5.344189498E0,-7.362484932E-3,3.038287163E-3,-1.213645935E-2,1.451657738E-2
5.349274393E0,1.174506545E-2,-1.730978489E-3,-2.391338348E-2,2.669817894E-2
5.354310070E0,2.132356167E-3,-1.369285583E-2,-7.089614868E-3,1.556611328E-2
5.359400591E0,9.230792522E-3,1.731038094E-2,-9.405136108E-3,2.175576714E-2
5.364467518E0,-2.582728863E-3,6.965398788E-4,1.773834229E-4,2.680880650E-3
5.369510487E0,-1.202660799E-2,-1.588329673E-2,4.927635193E-3,2.052315773E-2
5.374602675E0,-4.291534424E-6,-1.574161649E-2,2.626609802E-2,3.062199232E-2
5.379668300E0,-1.907098293E-2,-6.049096584E-3,-7.205009460E-3,2.126513863E-2
5.384735748E0,1.195228100E-2,-1.302033663E-2,-4.763603210E-3,1.830513869E-2
5.389802154E0,-1.666900516E-2,3.771871328E-3,4.516506195E-2,4.829042935E-2
5.394868039E0,-6.934106350E-3,-1.530882716E-2,1.152515411E-2,2.037820398E-2
5.399934706E0,-1.396605372E-2,-1.760604978E-2,-2.827644348E-3,2.264992755E-2
5.405015175E0,-1.984775066E-3,1.654446125E-3,1.383018494E-2,1.406948966E-2
5.410074289E0,2.415478230E-2,1.817458868E-2,8.959770203E-3,3.152850557E-2
5.415104550E0,7.312059402E-3,2.763366699E-2,1.763343811E-3,2.863904931E-2
5.420174341E0,-1.166412234E-2,2.740624547E-2,-5.381584167E-3,3.026739977E-2
5.425265956E0,1.465585828E-2,-6.126999855E-3,8.910179138E-3,1.821333581E-2
5.430312102E0,-2.343812585E-2,3.429085016E-3,3.971672058E-2,4.624415921E-2
5.435397727E0,-6.631761789E-3,1.522666216E-2,-9.994506836E-4,1.663822126E-2
5.440463873E0,-8.912712336E-3,5.602627993E-3,-2.474784851E-2,2.689390056E-2
5.445530018E0,1.247408986E-2,-1.515716314E-3,1.347255707E-2,1.842308627E-2
5.450583248E0,7.603883743E-3,3.198862076E-3,8.606910706E-3,1.192185717E-2
5.455642779E0,-1.924812794E-3,1.500070095E-2,2.040863037E-2,2.540153789E-2
5.460705487E0,-1.617965102E-2,1.244884729E-2,1.786136627E-2,2.712532601E-2
5.465774498E0,-4.184752703E-3,-9.034007788E-3,2.484035492E-2,2.676132815E-2
5.470841633E0,-4.219621420E-3,-2.321121097E-2,8.007049561E-3,2.491341731E-2
5.475906373E0,1.475742459E-2,1.504996419E-2,1.269721985E-2,2.460695826E-2
5.480973039E0,-4.380196333E-3,2.918490767E-2,7.143020630E-4,2.952041977E-2
5.486043560E0,5.197793245E-3,-1.608422399E-2,-3.254508972E-2,3.667290800E-2
5.491094810E0,-9.168297052E-3,-2.302414179E-2,-6.136894226E-3,2.553096643E-2
5.496187675E0,9.844720364E-3,-2.515256405E-2,4.855728149E-2,5.556419336E-2
5.501236737E0,-4.401832819E-3,-5.883872509E-3,-1.836395264E-2,1.977955622E-2
5.506302675E0,9.977042675E-3,-2.018937469E-2,-3.965377808E-3,2.286649190E-2
5.511368091E0,1.235839725E-2,-1.774692535E-2,1.031208038E-2,2.395876340E-2
5.516435748E0,1.936438680E-2,-3.407067060E-2,2.448749542E-2,4.621068603E-2
5.521502050E0,-1.168930531E-2,-4.555311799E-2,-2.322101593E-2,5.244942324E-2
5.526564602E0,-1.403471828E-2,2.392172813E-3,-1.642227173E-3,1.433152881E-2
5.531625956E0,-9.288430214E-3,-9.452670813E-3,-2.062511444E-2,2.451577588E-2
5.536716529E0,4.974544048E-3,-1.412206888E-2,3.304481506E-3,1.533292262E-2
5.541782935E0,-4.534572363E-3,-1.632708311E-2,-6.223678589E-3,1.805187427E-2
5.546849602E0,2.390742302E-4,1.242250204E-2,3.335952759E-3,1.286484723E-2
5.551914445E0,7.293969393E-3,2.894845605E-2,-1.569366455E-2,3.372693588E-2
5.556979550E0,-2.338737249E-3,2.158138156E-2,-1.305580139E-3,2.174695982E-2
5.562046216E0,2.416640520E-3,2.145650983E-2,8.210182190E-3,2.310041249E-2
5.567111841E0,7.184445858E-3,1.890501380E-2,-3.461933136E-2,4.009381390E-2
5.572177987E0,-4.770755768E-3,1.394504309E-2,1.555442810E-2,2.142812570E-2
5.577245956E0,1.900672913E-2,6.755083799E-3,-2.495670319E-2,3.208931198E-2
5.582312570E0,-1.199430227E-2,-2.412611246E-2,-3.187465668E-2,4.173639093E-2
5.587378716E0,-1.190713048E-2,-2.540230751E-3,2.540493011E-2,2.817167021E-2
5.592452414E0,-9.502232075E-3,-4.893869162E-3,3.815650940E-3,1.134907758E-2
5.597514133E0,7.346659899E-3,-7.277786732E-3,1.090240479E-2,1.502671027E-2
5.602550123E0,-9.254872799E-3,1.648929715E-2,1.318168640E-2,2.305008563E-2
5.607619393E0,3.018975258E-4,2.585053444E-2,3.570556641E-3,2.609770388E-2
5.612710487E0,9.733855724E-3,1.845902205E-2,-3.446769714E-2,4.029274858E-2
5.617774550E0,1.206514239E-2,-3.123849630E-3,-1.992988586E-2,2.350588114E-2
5.622844602E0,2.449691296E-3,-7.172822952E-4,3.249931335E-2,3.259939953E-2
5.627880070E0,7.118284702E-3,-2.198049426E-2,2.510929108E-2,3.412167351E-2
5.632992258E0,2.292543650E-3,-5.060523748E-3,-1.785469055E-2,1.869905430E-2
5.638016737E0,-7.241398096E-3,-2.148714662E-2,2.743721008E-2,3.559404182E-2
5.643082727E0,-6.720423698E-5,-1.417648792E-2,-3.672599792E-3,1.464463436E-2
5.648150435E0,1.406711340E-2,-3.068426251E-2,4.149723053E-2,5.349231522E-2
5.653214914E0,6.860136986E-3,-8.941680193E-3,7.897377014E-3,1.376167460E-2
5.658281112E0,6.837427616E-3,1.024207473E-2,-2.542209625E-2,2.824771653E-2
5.663347310E0,2.101844549E-2,1.021170616E-2,-2.045631409E-2,3.105663825E-2
5.668413039E0,2.320849895E-2,-8.922666311E-3,-2.266311646E-2,3.364320504E-2
5.673478925E0,-3.076493740E-3,-1.359438896E-2,1.279830933E-3,1.399679221E-2
5.678544758E0,-3.011524677E-3,-1.650542021E-3,3.214836121E-2,3.233126502E-2
5.683610748E0,6.448417902E-3,5.492687225E-3,2.713203430E-2,2.842356402E-2
5.688709445E0,-2.207466960E-2,1.965057850E-2,3.165340424E-2,4.330559171E-2
5.693745435E0,-1.477676630E-2,1.231336594E-2,-6.621360779E-3,2.034242418E-2
5.698809706E0,6.713449955E-3,1.453921199E-2,-1.607036591E-2,2.268734793E-2
5.703879758E0,1.377135515E-2,2.149751782E-2,-4.059791565E-3,2.585102325E-2
5.708961998E0,2.309119701E-2,-1.906290650E-2,1.260566711E-2,3.248846914E-2
5.714033091E0,-1.755517721E-2,4.956364632E-3,2.200984955E-2,2.858641766E-2
5.719073248E0,-1.272717118E-2,-1.166114211E-2,-9.049415588E-3,1.948987030E-2
5.724141216E0,1.597678661E-2,-4.432380199E-3,-2.323055267E-2,2.854053753E-2
5.729399185E0,3.952711821E-3,-3.775590658E-2,1.259136200E-2,3.999593491E-2
5.734294550E0,1.816067100E-2,-1.843217015E-2,-1.364421844E-2,2.925268474E-2
5.739359654E0,6.114006042E-3,-4.024624825E-3,7.850646973E-3,1.073365421E-2
5.744425279E0,1.296758652E-3,-1.829352975E-2,-4.094123840E-3,1.879086650E-2
5.749472414E0,-1.060205698E-2,-1.505225897E-3,-2.306365967E-2,2.542836437E-2
5.754594914E0,-3.455162048E-3,7.959723473E-3,-2.049541473E-2,2.225662525E-2
5.759623560E0,6.065577269E-3,2.215367556E-2,-3.694534302E-3,2.326426771E-2
5.764688664E0,-2.256116271E-2,6.941258907E-4,-1.078319550E-2,2.501529889E-2
5.769758977E0,-1.294323802E-2,-1.831737161E-2,-1.188278198E-3,2.246030984E-2
5.774827466E0,1.808348298E-2,1.272010803E-2,-2.018356323E-2,2.993642814E-2
5.779892310E0,4.640848339E-1,2.762866914E-1,-3.193149567E-1,6.274321560E-1
5.784957675E0,1.156148672E0,5.855000019E-1,-4.097461700E-2,1.296598983E0
5.790029029E0,2.331509829E0,6.189368963E-1,-9.038639069E-2,2.413957469E0
5.795062414E0,3.151395321E0,1.069741845E0,1.981544495E-2,3.328067418E0
5.800130123E0,3.440109491E0,1.142439485E0,2.859182358E-1,3.636106506E0
5.805190279E0,3.447021723E0,9.130185843E-1,3.098783493E-1,3.579327630E0
5.810273664E0,2.392934799E0,-1.922808588E-1,1.197690964E-1,2.403633399E0
5.815331633E0,5.613564253E-1,-1.216662765E0,1.889514923E-2,1.340054605E0
5.820403508E0,-1.747334242E0,-1.860913992E0,-3.828916550E-1,2.581236885E0
5.825469081E0,-2.851943254E0,-2.464575052E0,-1.155276299E0,3.942381747E0
5.830543716E0,-2.674378633E0,-1.688223004E0,-1.340146065E0,3.434878377E0
5.835713664E0,-2.012141228E0,-1.011121273E0,-1.806295872E0,2.886829286E0
5.840756060E0,-1.357120275E0,-3.093485832E-1,-1.680212975E0,2.181877088E0
5.845754081E0,-7.065892220E-1,-5.282258987E-2,-1.668608665E0,1.812819195E0
5.850800279E0,-4.396089315E-1,-3.038137555E-1,-3.201680183E0,3.245969009E0
5.855863352E0,-2.331962585E0,-6.743464470E-1,6.625798225E0,7.056486006E0
5.860929341E0,-2.523233175E0,-1.127931356E0,5.991344452E0,6.598116636E0
5.865996737E0,-1.302486062E0,-8.985371590E-1,-1.814433098E0,2.407489654E0
5.871062310E0,-1.172840118E0,-5.834689736E-1,3.801937103E-1,1.364015119E0
5.876128352E0,-1.130811214E0,-5.164580941E-1,1.304903030E-1,1.249996274E0
5.881195018E0,-1.207526684E0,-7.591084242E-1,1.862249374E-1,1.438417888E0
5.886266477E0,-1.017030120E0,-8.997420073E-1,4.327201843E-1,1.425178130E0
5.891315904E0,-2.761812210E-1,-6.925854683E-1,2.622194290E-1,7.903858088E-1
5.896412518E0,5.312198400E-1,9.650969505E-2,-3.711690903E-1,6.551909136E-1
5.901475800E0,2.140229702E0,2.190173388E0,-2.389125824E-1,3.071566680E0
5.906542466E0,2.866075516E0,3.329955101E0,-1.075067520E-1,4.394831912E0
5.911610956E0,1.782323480E0,2.128398418E0,-1.703271866E-1,2.781324894E0
5.916679445E0,5.476818085E-1,4.708836675E-1,-4.987239838E-2,7.239986518E-1
5.921745331E0,-3.231608868E-1,-1.810734868E-1,-3.335943222E-1,4.985034986E-1
5.926811477E0,-1.150162578E0,-3.487542868E-1,1.204986572E-1,1.207900424E0
5.931844289E0,-1.220006227E0,-5.070878863E-1,1.235179901E-1,1.326955166E0
5.936945070E0,-1.903160810E-1,-4.943366051E-1,1.270971298E-1,5.447408285E-1
5.942012779E0,1.161170006E0,-2.810857296E-1,1.770124435E-1,1.207749301E0
5.947040643E0,2.712690353E0,-3.946530819E-2,6.503963470E-2,2.713756919E0
5.952112779E0,3.951604843E0,1.403497458E-1,-1.390342712E-1,3.956540081E0
5.957213820E0,4.630124092E0,4.734104872E-2,-1.865930557E-1,4.634124216E0
5.962249237E0,4.831654549E0,-4.302986264E-1,1.207756042E0,4.998871597E0
5.967314862E0,4.341366768E0,-1.166845560E0,3.119008064E0,5.471490225E0
5.972407050E0,3.266526699E0,-1.592341423E0,3.633395195E0,5.138804192E0
5.977473716E0,1.653164864E0,-1.887419343E0,2.832005501E0,3.783591019E0
5.982538039E0,-3.534606695E-1,-2.083649635E0,1.503177643E0,2.593467423E0
5.987605487E0,-2.080184698E0,-1.938809872E0,9.512510300E-1,2.998504730E0
5.992661060E0,-2.708475590E0,-1.778512478E0,1.298542976E0,3.490724927E0
5.997730175E0,-2.626813889E0,-1.974324465E0,1.989296913E0,3.841277197E0
6.002779966E0,-1.929425240E0,-2.301864147E0,2.853224754E0,4.142722753E0
6.007843925E0,-8.938778639E-1,-2.406653643E0,3.703059196E0,4.505956813E0
6.012910643E0,1.628994942E-3,-2.340669155E0,4.380157471E0,4.966338109E0
6.017991320E0,7.306312323E-1,-2.104499102E0,4.955657005E0,5.433348399E0
6.023049550E0,1.163255692E0,-1.783366203E0,5.287510872E0,5.700116669E0
6.028111998E0,1.508606791E0,-1.426113367E0,5.408708572E0,5.793429227E0
6.033180227E0,1.540773273E0,-1.194610715E0,5.424239159E0,5.763978443E0
6.038247362E0,1.087150693E0,-1.183398247E0,5.097264290E0,5.344570262E0
6.043313612E0,5.167323351E-1,-1.228824973E0,4.983502388E0,5.158712938E0
6.048380591E0,-9.405565262E-2,-1.383526087E0,5.013554573E0,5.201799723E0
6.053442466E0,-7.416235805E-1,-1.547285795E0,4.601502419E0,4.911000242E0
6.058509393E0,-7.637720108E-1,-1.503301144E0,3.739341736E0,4.101943275E0
6.063605904E0,-3.531866074E-1,-1.496941566E0,2.828360558E0,3.219502800E0
6.068665643E0,3.367922306E-1,-1.334858179E0,2.304944038E0,2.684779765E0
6.073726060E0,1.095713139E0,-1.161157131E0,1.891167641E0,2.474952163E0
6.078789341E0,1.730982661E0,-9.635055065E-1,1.278306007E0,2.357691685E0
6.083855487E0,2.490333557E0,-6.717557311E-1,9.954538345E-1,2.764768584E0
6.088923716E0,2.799667120E0,-6.347552538E-1,7.622041702E-1,2.970186090E0
6.094001060E0,2.833260059E0,-6.645037532E-1,8.200025558E-1,3.023463576E0
6.099061737E0,2.689578056E0,-7.028868794E-1,9.289836884E-1,2.931022139E0
6.104094289E0,2.381061554E0,-7.349876165E-1,1.024220467E0,2.694195332E0
6.109188456E0,1.912264943E0,-5.797001123E-1,1.048057556E0,2.256376315E0
6.114222675E0,1.380138397E0,-3.964674473E-1,9.574813843E-1,1.725902382E0
6.119323300E0,9.571088552E-1,-4.017089903E-1,1.032510757E0,1.464071698E0
6.124391268E0,3.972616196E-1,-5.276467800E-1,1.335119247E0,1.489554069E0
6.129462154E0,-1.985245347E-1,-6.719568372E-1,1.374254227E0,1.542566907E0
6.134520956E0,-5.437013507E-1,-6.426481009E-1,1.135734558E0,1.413683390E0
6.139587102E0,-6.170254946E-1,-6.548063159E-1,6.151571274E-1,1.089912870E0
6.144652727E0,-5.609248877E-1,-6.978166103E-1,1.431798935E-1,9.066891602E-1
6.149709237E0,-3.305801153E-1,-6.781873703E-1,-3.160867691E-1,8.180049923E-1
6.154774550E0,-1.331089735E-1,-7.105789185E-1,-7.816734314E-1,1.064731774E0
6.159854550E0,-5.512577295E-2,-6.839517355E-1,-1.038202286E0,1.244464870E0
6.164917831E0,-7.095545530E-2,-7.121859193E-1,-1.411515236E0,1.582598724E0
6.169983664E0,-1.991624832E-1,-8.231865764E-1,-1.937446117E0,2.114473762E0
6.175041008E0,-2.133920789E-1,-8.556464911E-1,-2.388462067E0,2.546059336E0
6.180094498E0,-3.157683611E-1,-8.567441702E-1,-2.855540276E0,2.997971063E0
6.185161945E0,-3.831617832E-1,-7.691640854E-1,-3.257240295E0,3.368685305E0
6.190247987E0,-4.047867060E-1,-6.551116705E-1,-3.610347271E0,3.691562135E0
6.195297258E0,-4.853494763E-1,-5.115858912E-1,-3.914832115E0,3.977837946E0
6.200360018E0,-5.296433568E-1,-4.345252216E-1,-3.895619392E0,3.955399437E0
6.205425175E0,-4.377017319E-1,-3.738591075E-1,-3.950262547E0,3.991982919E0
6.210503977E0,-3.618778586E-1,-2.751446068E-1,-3.896709919E0,3.923137562E0
6.215557258E0,-2.578001618E-1,-1.462108344E-1,-3.687127113E0,3.699019449E0
6.220629914E0,-2.262129188E-1,-4.790434241E-2,-3.218755722E0,3.227050590E0
6.225702414E0,-2.685207725E-1,1.902708411E-2,-2.503901958E0,2.518330886E0
6.230755852E0,-2.605464458E-1,7.271382213E-2,-1.787030220E0,1.807387274E0
6.235821945E0,-2.432798147E-1,1.500074267E-1,-1.245316505E0,1.277693428E0
6.240894133E0,-2.844865322E-1,2.288400233E-1,-9.241333008E-1,9.936411328E-1
6.245958664E0,-2.824939489E-1,3.758868873E-1,-5.122833252E-1,6.953617681E-1
6.251010383E0,-3.121405840E-1,3.942792416E-1,-1.631813049E-1,5.286927300E-1
6.256103091E0,-4.869798422E-1,3.749852777E-1,-1.323699951E-3,6.146259654E-1
6.261168456E0,-6.049018502E-1,3.206005991E-1,1.025695801E-1,6.922510464E-1
6.266236164E0,-6.585488319E-1,2.860584557E-1,1.006689072E-1,7.250174019E-1
6.271303091E0,-7.367181778E-1,2.807011306E-1,2.688407898E-3,7.883869772E-1
6.276369758E0,-7.920606136E-1,1.824416816E-1,-1.648788452E-1,8.293551811E-1
6.281433820E0,-7.817070484E-1,8.013123274E-2,-3.732299805E-1,8.699353668E-1
6.286503612E0,-6.103292108E-1,4.729926586E-4,-7.634544373E-1,9.774275661E-1
6.291567675E0,-4.539664388E-1,-2.751237154E-2,-1.342362404E0,1.417314108E0
6.296632518E0,-3.649412394E-1,-2.228298783E-2,-1.858268261E0,1.893895343E0
6.301700070E0,-2.893997431E-1,-5.111813545E-3,-2.299137115E0,2.317285010E0
6.306764914E0,-2.832799554E-1,2.711063623E-2,-2.586025715E0,2.601636315E0
6.311842779E0,-2.868671417E-1,3.186613321E-2,-2.807654858E0,2.822451772E0
6.316903195E0,-3.291582465E-1,8.892369270E-2,-2.956932545E0,2.976525264E0
6.321940695E0,-3.771092296E-1,1.433833241E-1,-2.954937458E0,2.982352348E0
6.327007883E0,-2.973176241E-1,1.039040685E-1,-2.509854317E0,2.529538004E0
6.332065956E0,-3.105608225E-1,1.048886776E-2,-2.103329659E0,2.126159376E0
6.337164654E0,-3.798968792E-1,5.915701389E-2,-1.969887733E0,2.007057267E0
6.342230018E0,-3.829884529E-1,1.205520630E-1,-1.781446934E0,1.826134204E0
6.347297987E0,-3.369638920E-1,7.724303007E-2,-1.456668854E0,1.497129019E0
6.352357362E0,-4.166791439E-1,2.698260546E-2,-1.218166351E0,1.287741756E0
6.357414393E0,-4.111678600E-1,-1.906841993E-2,-4.030847549E-1,5.761075711E-1
6.362474185E0,-4.660228491E-1,1.652711630E-2,-1.178188324E-1,4.809695611E-1
6.367541373E0,-4.680732489E-1,-3.130543232E-2,-2.685203552E-1,5.405328645E-1
6.372608091E0,-7.609643936E-1,-3.165936768E-1,-1.993589401E-1,8.479636499E-1
6.377676112E0,-9.318748116E-1,-4.122619331E-1,-5.017995834E-1,1.135849192E0
6.382743873E0,-8.913403153E-1,-3.779343665E-1,-3.665533066E-1,1.035221363E0
6.387810227E0,-9.951628447E-1,-1.283977628E-1,-3.397722244E-1,1.059377288E0
6.392873456E0,-9.402873516E-1,-1.688181162E-1,-7.369747162E-1,1.206553601E0
6.397938143E0,-1.066617489E0,-4.045734406E-1,-5.959272385E-1,1.287043826E0
6.403011373E0,-1.048368454E0,-4.068436325E-1,-8.887195587E-1,1.433325019E0
6.408069706E0,-9.137165546E-1,-2.835723460E-1,-6.886329651E-1,1.178773336E0
6.413138039E0,-8.780078888E-1,3.111249208E-2,-7.809705734E-1,1.175491759E0
6.418204706E0,-6.240646243E-1,-3.762388229E-2,-1.088584900E0,1.255344294E0
6.423291789E0,-7.666193247E-1,-3.206261694E-1,-1.135260582E0,1.406884117E0
6.428372518E0,-7.033193111E-1,-2.689386010E-1,-1.344692230E0,1.541162944E0
6.433421373E0,-5.172833204E-1,-1.539525390E-1,-1.367074966E0,1.469754191E0
6.438484393E0,-3.824605942E-1,1.119837761E-1,-1.415259361E0,1.470297770E0
6.443551060E0,-2.667093277E-1,3.460512161E-1,-1.060656548E0,1.147117091E0
6.448615123E0,-3.052568436E-2,1.744265556E-1,-7.105541229E-1,7.322865575E-1
6.453682570E0,-3.107217550E-1,-8.126914501E-2,-5.088834763E-1,6.017599815E-1
6.458747414E0,-3.480272293E-1,7.466965914E-2,-1.851654053E-1,4.012290339E-1
6.463813039E0,-1.342762709E-1,1.864151955E-1,1.387214661E-2,2.301590287E-1
6.468879966E0,1.125526428E-1,4.183788300E-1,-5.750179291E-2,4.370530848E-1
6.473945852E0,1.601961851E-1,6.628090739E-1,-2.329730988E-2,6.822913240E-1
6.479022518E0,2.630773783E-1,7.188001275E-1,-9.189319611E-2,7.709265138E-1
6.484084498E0,1.704330444E-1,3.122560978E-1,-3.111705780E-1,4.726292647E-1
6.489141164E0,-2.598587275E-1,9.812974930E-2,-2.338628769E-1,3.631085941E-1
6.494186060E0,-5.484424829E-1,1.243612170E-1,-4.298734665E-1,7.078460755E-1
6.499276164E0,-5.990904570E-1,1.920326352E-1,-4.081029892E-1,7.498892974E-1
6.504344914E0,-6.592899561E-1,2.313187122E-1,-8.252811432E-2,7.035499147E-1
6.509400435E0,-5.774260759E-1,1.121462584E-1,8.226108551E-2,5.939398476E-1
6.514478248E0,-7.623746991E-1,-2.202713490E-1,2.178764343E-2,7.938572607E-1
6.519544393E0,-7.769320011E-1,-1.260815263E-1,-1.774454117E-1,8.068498991E-1
6.524610539E0,-6.030430794E-1,-2.256816626E-2,2.146511078E-1,6.405040014E-1
6.529636633E0,-5.331798792E-1,8.993244171E-2,1.299495697E-1,5.561074701E-1
6.534743352E0,-4.525450468E-1,2.091178298E-1,1.049880981E-1,5.094602898E-1
6.539783716E0,-3.175669909E-1,3.090910912E-1,1.658735275E-1,4.731808570E-1
6.544856164E0,-2.357412577E-1,3.775178194E-1,4.932308197E-2,4.478017541E-1
6.549923716E0,-1.664736271E-1,4.578237534E-1,4.265213013E-2,4.890145825E-1
6.554978873E0,4.767668247E-2,4.230659008E-1,-1.628065109E-1,4.558111259E-1
6.560051945E0,1.180773973E-1,2.401696444E-1,-2.125043869E-1,3.417335867E-1
6.565119133E0,1.467399597E-1,3.039491177E-1,3.617286682E-3,3.375363190E-1
6.570203716E0,1.100192070E-1,3.236141205E-1,1.397705078E-2,3.420901677E-1
6.575249498E0,2.229844332E-1,2.777702808E-1,-2.672481537E-1,4.453088389E-1
6.580314966E0,2.642058134E-1,3.031039238E-1,-4.615020752E-1,6.120954712E-1
6.585381060E0,1.970064640E-1,3.638887405E-1,-4.347848892E-1,6.002203447E-1
6.590460956E0,1.324757338E-1,3.550018072E-1,-4.100542068E-1,5.583194030E-1
6.595512570E0,1.478453875E-1,3.417727947E-1,-5.286579132E-1,6.466421661E-1
6.600583873E0,1.144932508E-1,2.602274418E-1,-5.370054245E-1,6.076198251E-1
6.605655175E0,1.240547895E-1,2.590746880E-1,-6.291866302E-1,6.916538877E-1
6.610703925E0,2.047824860E-1,3.098752499E-1,-4.988336563E-1,6.219272897E-1
6.615799498E0,2.588073015E-1,3.091461658E-1,-1.940679550E-1,4.474538438E-1
6.620870331E0,2.611376047E-1,3.262197971E-1,-7.420730591E-2,4.244042046E-1
6.625931008E0,2.145498991E-1,3.846766949E-1,7.389259338E-2,4.466183316E-1
6.630995331E0,1.506633759E-1,4.629656076E-1,6.827259064E-2,4.916276572E-1
6.636061998E0,1.886788607E-1,5.156406164E-1,6.231689453E-2,5.526014415E-1
6.641128664E0,2.492465973E-1,5.764050484E-1,1.684989929E-1,6.501988593E-1
6.646195852E0,2.489974499E-1,6.351850033E-1,3.125009537E-1,7.504109304E-1
6.651262518E0,2.862092257E-1,7.326996326E-1,3.459119797E-1,8.593134296E-1
6.656331268E0,3.654605150E-1,8.255873919E-1,5.129690170E-1,1.038408947E0
6.661399393E0,4.295412302E-1,7.840887308E-1,6.269187927E-1,1.091937718E0
6.666461893E0,5.069255829E-1,7.731440067E-1,5.778636932E-1,1.090253021E0
6.671536112E0,6.307183504E-1,7.926788330E-1,2.966995239E-1,1.055545346E0
6.676596789E0,7.282518148E-1,7.807605267E-1,2.336206436E-1,1.092939299E0
6.681637675E0,7.876750231E-1,9.073762894E-1,9.644317627E-2,1.205431441E0
6.686702258E0,8.402267694E-1,9.599026442E-1,-1.196050644E-1,1.281288212E0
6.691758768E0,8.663600683E-1,9.460697174E-1,-2.612943649E-1,1.309160962E0
6.696859289E0,8.922492266E-1,1.016740918E0,-3.071632385E-1,1.387162583E0
6.701925956E0,9.343522787E-1,1.016377211E0,-4.104137421E-1,1.440304223E0
6.706991841E0,9.946068525E-1,9.807339907E-1,-4.392824173E-1,1.464257830E0
6.712025383E0,9.080408812E-1,9.602999687E-1,-3.628110886E-1,1.370527693E0
6.717126685E0,8.090193272E-1,1.029086232E0,-2.864217758E-1,1.339988126E0
6.722169550E0,7.291638851E-1,1.067651153E0,-2.461309433E-1,1.316107669E0
6.727231008E0,6.351389885E-1,1.073509216E0,-1.557788849E-1,1.257016560E0
6.732321060E0,5.457211733E-1,1.144839048E0,-2.254581451E-2,1.268454319E0
6.737366373E0,5.013201237E-1,1.132842779E0,2.014646530E-1,1.255086704E0
6.742430175E0,5.596175194E-1,1.106448174E0,4.491691589E-1,1.318769222E0
6.747497466E0,5.987551212E-1,1.060470581E0,5.482883453E-1,1.335561926E0
6.752568300E0,5.300230980E-1,9.947375059E-1,5.756320953E-1,1.265614277E0
6.757643456E0,4.372806549E-1,1.012373686E0,5.815038681E-1,1.246700285E0
6.762699393E0,3.829163313E-1,1.039195776E0,5.969934464E-1,1.258154980E0
6.767764185E0,3.046318293E-1,1.006030083E0,6.316356659E-1,1.226319980E0
6.772829081E0,1.903936863E-1,8.988051414E-1,5.729465485E-1,1.082759523E0
6.777894706E0,1.566783190E-1,7.776144743E-1,5.647029877E-1,9.737154772E-1
6.782986008E0,8.081912994E-2,8.338545561E-1,5.877990723E-1,1.023402610E0
6.788061060E0,-1.332700253E-2,9.330728054E-1,6.781377792E-1,1.153548142E0
6.793093300E0,-1.323218346E-1,9.914262295E-1,7.805137634E-1,1.268714614E0
6.798150070E0,-3.092976809E-1,1.035440445E0,9.426841736E-1,1.434034665E0
6.803247466E0,-3.954417706E-1,1.079334855E0,1.090357780E0,1.584366754E0
6.808309706E0,-4.791504145E-1,1.134519458E0,1.324076653E0,1.808286067E0
6.813375331E0,-4.472711086E-1,1.107404113E0,1.552735329E0,1.958923764E0
6.818442258E0,-3.852878809E-1,1.198738337E0,1.601598740E0,2.037287136E0
6.823507883E0,-2.283645868E-1,1.319725037E0,1.446938515E0,1.971663161E0
6.828563091E0,-9.635686874E-2,1.339110851E0,1.225349426E0,1.817686369E0
6.833646164E0,-3.484797478E-2,1.391453147E0,1.030188560E0,1.731659525E0
6.838703977E0,7.348918915E-2,1.469801426E0,8.829174042E-1,1.716175992E0
6.843776112E0,1.881725788E-1,1.493241787E0,7.546596527E-1,1.683654105E0
6.848843612E0,2.420734167E-1,1.459734559E0,6.142702103E-1,1.602108740E0
6.853908143E0,1.584739685E-1,1.362357974E0,4.713497162E-1,1.450277147E0
6.858953716E0,-6.327629089E-2,1.275599599E0,4.121360779E-1,1.342018768E0
6.864047466E0,-3.182165623E-1,1.237592578E0,4.222698212E-1,1.345811640E0
6.869079706E0,-5.952169299E-1,1.257993817E0,5.735597610E-1,1.505258263E0
6.874153456E0,-8.610021472E-1,1.209667087E0,8.443756104E-1,1.708095234E0
6.879205800E0,-9.820303321E-1,1.254795432E0,1.093562126E0,1.932556150E0
6.884306581E0,-1.049463153E0,1.332805395E0,1.254260063E0,2.109718331E0
6.889353716E0,-1.208052397E0,1.412325025E0,1.367468834E0,2.307384576E0
6.894409445E0,-1.467593193E0,1.452276230E0,1.710889816E0,2.681432451E0
6.899479550E0,-1.681402445E0,1.378158689E0,2.186104774E0,3.083097410E0
6.904546477E0,-1.812339187E0,1.335541248E0,2.558354378E0,3.407846956E0
6.909628560E0,-1.878543139E0,1.237827063E0,2.782203674E0,3.577959956E0
6.914678456E0,-1.905114412E0,1.121102810E0,3.010737419E0,3.735086644E0
6.919743456E0,-1.905322313E0,1.004975319E0,3.088192940E0,3.765257513E0
6.924810123E0,-2.071905613E0,9.665726423E-1,3.062354088E0,3.821657769E0
6.929879706E0,-2.380355835E0,8.913275003E-1,3.045690536E0,3.966962246E0
6.934965383E0,-2.715880156E0,7.409805059E-1,3.035855293E0,4.140226382E0
6.940007779E0,-3.071437597E0,6.212542057E-1,3.004118919E0,4.341015571E0
6.945072310E0,-3.356462955E0,5.533471107E-1,2.893216133E0,4.465729077E0
6.950155487E0,-3.617436886E0,4.605569839E-1,2.736922264E0,4.559463328E0
6.955200539E0,-3.776091814E0,3.696368933E-1,2.645400047E0,4.625326176E0
6.960300852E0,-3.999366760E0,2.946478128E-1,2.518053055E0,4.735223649E0
6.965345643E0,-4.323633671E0,2.676733732E-1,2.228052139E0,4.871311270E0
6.970400904E0,-4.651208401E0,2.166986465E-1,1.952768326E0,5.049158546E0
6.975490487E0,-4.927930355E0,1.561125517E-1,1.771264076E0,5.238916409E0
6.980556633E0,-5.200146198E0,1.219445467E-1,1.602165222E0,5.442731332E0
6.985623820E0,-5.578025818E0,1.095330715E-1,1.478933334E0,5.771794637E0
6.990687883E0,-5.978002548E0,1.640512943E-1,1.504467964E0,6.166591534E0
6.995754810E0,-6.311232090E0,1.848454475E-1,1.719226837E0,6.543818400E0
7.000821477E0,-6.438329697E0,1.408327818E-1,1.986515999E0,6.739300332E0
7.005886841E0,-6.502383232E0,6.489753723E-2,2.071858406E0,6.824792791E0
7.010954289E0,-6.546377659E0,2.598714828E-2,2.095193863E0,6.873541526E0
7.016018873E0,-6.629989147E0,2.154612541E-2,1.972886086E0,6.917333289E0
7.021104081E0,-6.752755165E0,-2.492845058E-2,1.736176491E0,6.972419419E0
7.026151998E0,-6.950793266E0,-1.914343834E-1,1.466424942E0,7.106375747E0
7.031226737E0,-7.237824440E0,-3.459411860E-1,1.287983894E0,7.359665783E0
7.036288977E0,-7.580284119E0,-5.214644670E-1,1.231760979E0,7.697393560E0
7.041326477E0,-7.980396271E0,-6.724740267E-1,1.156446457E0,8.091743592E0
7.046388716E0,-8.406837463E0,-8.734627962E-1,1.143477440E0,8.529091045E0
7.051484289E0,-8.816457748E0,-1.181920528E0,1.133016586E0,8.967195211E0
7.056550435E0,-9.200472832E0,-1.465879321E0,1.038959503E0,9.374270071E0
7.061618404E0,-9.499126434E0,-1.789979815E0,9.140644073E-1,9.709425549E0
7.066684029E0,-9.774987221E0,-2.048487186E0,7.176380157E-1,1.001307541E1
7.071734133E0,-1.000959778E1,-2.269959688E0,6.004915237E-1,1.028131094E1
7.076796112E0,-1.015534687E1,-2.454054832E0,4.954519272E-1,1.045939424E1
7.081862831E0,-1.024899197E1,-2.617731094E0,3.834323883E-1,1.058495974E1
7.086940018E0,-1.037808132E1,-2.684686422E0,4.391880035E-1,1.072869979E1
7.092018143E0,-1.046230602E1,-2.744142532E0,6.554756165E-1,1.083604235E1
7.097060956E0,-1.043494987E1,-2.765402794E0,9.771270752E-1,1.083929928E1
7.102129758E0,-1.037453270E1,-2.761723995E0,1.239171982E0,1.080710856E1
7.107193456E0,-1.028560162E1,-2.817296982E0,1.463290215E0,1.076438485E1
7.112265331E0,-1.020555305E1,-2.812685013E0,1.690236092E0,1.072014031E1
7.117324654E0,-1.012347794E1,-2.870209217E0,1.888938904E0,1.069069673E1
7.122392570E0,-1.012407017E1,-2.995095491E0,1.937547684E0,1.073412711E1
7.127457206E0,-1.017069817E1,-3.175053120E0,1.742913246E0,1.079637949E1
7.132523248E0,-1.020089626E1,-3.397862673E0,1.386683464E0,1.084097073E1
7.137601112E0,-1.022000122E1,-3.653507471E0,9.455690384E-1,1.089452351E1
7.142653039E0,-1.022693348E1,-3.929306984E0,4.889116287E-1,1.096670672E1
7.147734966E0,-1.012200260E1,-4.156390190E0,6.713485718E-2,1.094234998E1
7.152805800E0,-1.000193214E1,-4.341265678E0,-4.109182358E-1,1.091119096E1
7.157875852E0,-9.852875710E0,-4.452418804E0,-8.831110001E-1,1.084818317E1
7.162934445E0,-9.660908699E0,-4.585241795E0,-1.215607643E0,1.076268095E1
7.168015956E0,-9.483405113E0,-4.766223907E0,-1.506633282E0,1.072015889E1
7.173072466E0,-9.339109421E0,-4.963457108E0,-1.648802280E0,1.070389743E1
7.178116998E0,-9.272259712E0,-5.174389839E0,-1.716492176E0,1.075618221E1
7.183184185E0,-9.300548553E0,-5.444632530E0,-1.767129421E0,1.092094195E1
7.188271425E0,-9.322156906E0,-5.761865616E0,-1.944324017E0,1.113023363E1
7.193337310E0,-9.291698456E0,-6.152056217E0,-2.319777966E0,1.138265460E1
7.198403195E0,-9.279870987E0,-6.450160980E0,-2.926746368E0,1.167417777E1
7.203468820E0,-9.314821243E0,-6.708207130E0,-3.468600273E0,1.199154392E1
7.208534185E0,-9.287507057E0,-7.021167755E0,-3.840493202E0,1.225985204E1
7.213603977E0,-9.238723755E0,-7.364256382E0,-3.999886036E0,1.247338675E1
7.218668560E0,-9.060966492E0,-7.756087303E0,-4.133886337E0,1.262327296E1
7.223732883E0,-8.858094215E0,-8.175206184E0,-4.206698418E0,1.276699420E1
7.228792102E0,-8.726641655E0,-8.659719467E0,-4.141991615E0,1.297309178E1
7.233865175E0,-8.348627090E0,-9.283783913E0,-3.959124088E0,1.309820146E1
7.238932623E0,-7.458601475E0,-9.812486649E0,-3.804306030E0,1.289916178E1
7.244007623E0,-6.498336315E0,-1.006427956E1,-4.043588161E0,1.264391961E1
7.249173039E0,-5.796279907E0,-1.006106758E1,-4.246031284E0,1.236328125E1
7.254118091E0,-5.231228352E0,-1.014924717E1,-4.038793564E0,1.211135094E1
7.259173143E0,-4.898136616E0,-1.031013107E1,-3.379185200E0,1.190417732E1
7.264239654E0,-4.680231571E0,-1.051048279E1,-2.468409538E0,1.176723679E1
7.269303612E0,-4.497389793E0,-1.066990185E1,-1.490477562E0,1.167453827E1
7.274370695E0,-4.307493210E0,-1.073703384E1,-4.424533844E-1,1.157731223E1
7.279435331E0,-4.063899040E0,-1.090001488E1,5.183258057E-1,1.164449490E1
7.284527935E0,-3.770822763E0,-1.121251869E1,1.327895164E0,1.190390630E1
7.289569029E0,-3.524276495E0,-1.154363537E1,2.037147522E0,1.224034364E1
7.294639133E0,-3.223608732E0,-1.198697376E1,2.495650291E0,1.266125837E1
7.299701841E0,-2.806694508E0,-1.236259937E1,2.567323685E0,1.293454863E1
7.304769237E0,-2.246757507E0,-1.272486687E1,2.472528458E0,1.315612227E1
7.309839550E0,-1.579276085E0,-1.294807434E1,2.426373482E0,1.326778167E1
7.314900070E0,-8.395175934E-1,-1.299804401E1,2.306482315E0,1.322776620E1
7.319966737E0,-6.370511651E-2,-1.303703403E1,2.215595245E0,1.322411347E1
7.325035591E0,6.503391266E-1,-1.302391434E1,2.299443245E0,1.324132640E1
7.330086998E0,1.289393425E0,-1.297256660E1,2.466658592E0,1.326779651E1
7.335182310E0,1.941666722E0,-1.286866570E1,2.647721291E0,1.328092822E1
7.340250279E0,2.569815874E0,-1.266215229E1,2.876068115E0,1.323653361E1
7.345314341E0,3.259898901E0,-1.225324059E1,3.161343575E0,1.306762943E1
7.350380487E0,3.854094982E0,-1.175489140E1,3.424548149E0,1.283585018E1
7.355449237E0,4.247001648E0,-1.136619568E1,3.783032417E0,1.270978999E1
7.360513820E0,4.821162701E0,-1.126723957E1,4.220167160E0,1.296163987E1
7.365581008E0,5.683947563E0,-1.111885452E1,4.554271698E0,1.329201176E1
7.370646633E0,6.327865601E0,-1.072334385E1,4.637342453E0,1.328672011E1
7.375716945E0,6.666619778E0,-1.026315689E1,4.646828651E0,1.309080689E1
7.380784862E0,6.860364437E0,-9.898868561E0,4.688166618E0,1.292405142E1
7.385849445E0,7.047920704E0,-9.675968170E0,4.790057182E0,1.289349425E1
7.390923143E0,7.286349773E0,-9.541826248E0,4.895075798E0,1.296530402E1
7.395959341E0,7.554779053E0,-9.321893692E0,4.838094711E0,1.293752484E1
7.401022623E0,7.764440060E0,-8.980520248E0,4.600216866E0,1.273178183E1
7.406083820E0,7.817391396E0,-8.625307083E0,4.274883270E0,1.240089341E1
7.411180175E0,7.737056732E0,-8.318281174E0,3.898108482E0,1.201045787E1
7.416246841E0,7.614788532E0,-8.108883858E0,3.661098480E0,1.171079177E1
7.421282518E0,7.603589535E0,-8.025645256E0,3.494290352E0,1.159463758E1
7.426380175E0,7.583200455E0,-7.889468193E0,3.376282692E0,1.145198334E1
7.431433352E0,7.514154434E0,-7.707434654E0,3.134520531E0,1.121125706E1
7.436475331E0,7.324617386E0,-7.534696579E0,2.802682877E0,1.087550935E1
7.441558195E0,7.067101479E0,-7.526863098E0,2.431193352E0,1.060699262E1
7.446618977E0,6.824004173E0,-7.654278755E0,2.163259506E0,1.048020553E1
7.451685904E0,6.741702557E0,-7.818195820E0,1.802319527E0,1.047965147E1
7.456757414E0,6.746664047E0,-7.871726036E0,1.309757233E0,1.044973734E1
7.461820227E0,6.781434536E0,-7.739980221E0,7.643718719E-1,1.031888621E1
7.466890748E0,6.785700798E0,-7.642575264E0,3.670244217E-1,1.022689586E1
7.471951268E0,6.821634293E0,-7.612549782E0,1.963300705E-1,1.022370550E1
7.477013039E0,6.956610680E0,-7.685862541E0,5.096912384E-2,1.036675036E1
7.482083143E0,6.996540070E0,-7.721413612E0,-2.388935089E-1,1.042251751E1
7.487153300E0,7.027160645E0,-7.637442589E0,-5.918035507E-1,1.039527525E1
7.492215852E0,7.112501144E0,-7.536987782E0,-9.573411942E-1,1.040722631E1
7.497282050E0,7.302331924E0,-7.372297287E0,-1.289939880E0,1.045651776E1
7.502350070E0,7.407170773E0,-7.234232903E0,-1.589622498E0,1.047507538E1
7.507422362E0,7.373632431E0,-7.146639824E0,-1.877810478E0,1.043892179E1
7.512500435E0,7.375679016E0,-7.078370571E0,-2.149554729E0,1.044626998E1
7.517565539E0,7.393115997E0,-7.022220612E0,-2.462089062E0,1.048959623E1
7.522629081E0,7.393938065E0,-6.844162941E0,-2.695557594E0,1.042971319E1
7.527694966E0,7.334492683E0,-6.677878380E0,-2.751969814E0,1.029379330E1
7.532760852E0,7.248099327E0,-6.508708954E0,-2.610031605E0,1.008516242E1
7.537821529E0,7.173419476E0,-6.404284954E0,-2.432526112E0,9.919173152E0
7.542900175E0,7.103593349E0,-6.302803040E0,-2.248102188E0,9.759115128E0
7.547960852E0,7.002905846E0,-6.226167679E0,-2.049486160E0,9.591988729E0
7.553035591E0,6.995814323E0,-6.160248280E0,-1.896406651E0,9.512435813E0
7.558068404E0,7.188048363E0,-6.023874283E0,-1.767320633E0,9.543506843E0
7.563133248E0,7.297275543E0,-5.824464798E0,-1.588011742E0,9.470818435E0
7.568194706E0,7.364800453E0,-5.655326843E0,-1.523750782E0,9.409825921E0
7.573290279E0,7.431489944E0,-5.535300255E0,-1.433331013E0,9.376621433E0
7.578359289E0,7.498176575E0,-5.364179611E0,-1.269014835E0,9.306313636E0
7.583425956E0,7.634764671E0,-5.079766273E0,-1.107589722E0,9.236904891E0
7.588491320E0,7.886993885E0,-4.742071152E0,-9.563026428E-1,9.252374079E0
7.593556164E0,8.286381721E0,-4.437287807E0,-7.937507629E-1,9.433116420E0
7.598623091E0,8.746917725E0,-4.127223969E0,-6.439170837E-1,9.693151014E0
7.603689758E0,9.264005661E0,-3.754869938E0,-5.139312744E-1,1.000924445E1
7.608755643E0,9.777988434E0,-3.358813286E0,-3.965988159E-1,1.034639914E1
7.613807310E0,1.022210121E1,-2.905965090E0,-2.799129486E-1,1.063082017E1
7.618876841E0,1.053199577E1,-2.475319147E0,-1.735153198E-1,1.082036263E1
7.623947675E0,1.059726143E1,-2.016995668E0,2.570915222E-2,1.078753365E1
7.629011112E0,1.045373726E1,-1.672930479E0,3.011636734E-1,1.059103482E1
7.634065591E0,1.022801304E1,-1.496263027E0,6.602020264E-1,1.035793997E1
7.639155956E0,9.969952583E0,-1.324712634E0,9.690046310E-1,1.010414707E1
7.644199445E0,9.653057098E0,-1.147367954E0,1.153770447E0,9.789236477E0
7.649287570E0,9.356209755E0,-9.642597437E-1,1.224243164E0,9.485105648E0
7.654329550E0,9.239256859E0,-7.376706600E-1,1.247796059E0,9.352273537E0
7.659397154E0,9.273370743E0,-5.514003038E-1,1.269901276E0,9.376145076E0
7.664465279E0,9.439737320E0,-3.958277702E-1,1.204283714E0,9.524474765E0
7.669542206E0,9.621563911E0,-2.132251263E-1,1.105840683E0,9.687251451E0
7.674594341E0,9.797944069E0,-7.566547394E-2,9.075088501E-1,9.840173045E0
7.679658612E0,9.902827263E0,-4.326343536E-3,5.827665329E-1,9.919960854E0
7.684728716E0,9.778974533E0,6.132125854E-2,2.008457184E-1,9.781229075E0
7.689812831E0,9.472748756E0,4.775762558E-2,-2.145757675E-1,9.475299075E0
7.694875070E0,9.031997681E0,-1.990604401E-2,-6.181898117E-1,9.053150667E0
7.699955279E0,8.546878815E0,-1.456890106E-1,-9.596662521E-1,8.601820858E0
7.705013091E0,8.025839806E0,-3.339514732E-1,-1.152697086E0,8.115068622E0
7.710053456E0,7.488991261E0,-5.701779127E-1,-1.273627758E0,7.617888199E0
7.715120123E0,7.033298969E0,-7.133864164E-1,-1.381976128E0,7.203198775E0
7.720214133E0,6.607484818E0,-8.262343407E-1,-1.467840195E0,6.818802947E0
7.725276633E0,6.224895000E0,-8.939467669E-1,-1.440185070E0,6.451557302E0
7.730343039E0,5.856951714E0,-9.525228739E-1,-1.308764458E0,6.076516075E0
7.735408664E0,5.444241524E0,-1.066571593E0,-1.009227753E0,5.638783680E0
7.740476998E0,5.066664696E0,-1.164546967E0,-7.333459854E-1,5.250243529E0
7.745540539E0,4.691251755E0,-1.239719748E0,-5.648593903E-1,4.885060308E0
7.750607466E0,4.332978725E0,-1.287278533E0,-4.416046143E-1,4.541674283E0
7.755674914E0,4.023930550E0,-1.285620451E0,-4.523429871E-1,4.248464569E0
7.760740800E0,3.678359509E0,-1.265395164E0,-5.756330490E-1,3.932290300E0
7.765806425E0,3.291973591E0,-1.321879029E0,-7.972211838E-1,3.635933980E0
7.770871529E0,2.910182476E0,-1.370586038E0,-1.009480476E0,3.371456505E0
7.775950175E0,2.544891834E0,-1.403686523E0,-1.133653641E0,3.119612297E0
7.781010852E0,2.248516083E0,-1.468641162E0,-1.220164776E0,2.949836185E0
7.786049914E0,2.034978390E0,-1.464796662E0,-1.235518932E0,2.795223308E0
7.791139966E0,1.844594002E0,-1.385161042E0,-1.320999622E0,2.658239671E0
7.796192779E0,1.750843525E0,-1.315600753E0,-1.423823833E0,2.612189254E0
7.801242570E0,1.705353498E0,-1.241716504E0,-1.455361843E0,2.562843836E0
7.806313300E0,1.777196884E0,-1.065638065E0,-1.470606327E0,2.541002995E0
7.811380070E0,1.865526915E0,-9.213149548E-1,-1.385843754E0,2.499914964E0
7.816444289E0,1.879405737E0,-8.664143085E-1,-1.342275620E0,2.466686749E0
7.821516737E0,1.818932533E0,-7.790873051E-1,-1.287137032E0,2.360553818E0
7.826585435E0,1.746462345E0,-6.978185177E-1,-1.186915398E0,2.223926610E0
7.831646060E0,1.662038088E0,-6.536920071E-1,-1.132596970E0,2.114819080E0
7.836706998E0,1.532143831E0,-6.082737446E-1,-1.114583015E0,1.989913809E0
7.841799602E0,1.423673630E0,-5.233099461E-1,-9.772739410E-1,1.804373647E0
7.846842310E0,1.350738764E0,-4.301855564E-1,-8.451061249E-1,1.650381527E0
7.851906268E0,1.253643751E0,-3.459594250E-1,-6.558122635E-1,1.456502765E0
7.856972987E0,1.117989540E0,-3.117058277E-1,-4.595623016E-1,1.248302305E0
7.862046008E0,1.013172626E0,-2.030277252E-1,-3.807420731E-1,1.101228203E0
7.867112518E0,8.553845882E-1,-4.641842842E-2,-3.545780182E-1,9.271262240E-1
7.872166008E0,7.185609341E-1,3.364562988E-2,-3.522233963E-1,8.009514126E-1
7.877263664E0,6.169960499E-1,8.512639999E-2,-2.899141312E-1,6.870086120E-1
7.882323300E0,5.047743320E-1,1.895904541E-1,-2.609996796E-1,5.990513328E-1
7.887390487E0,4.512078762E-1,2.726449966E-1,-1.816368103E-1,5.575982179E-1
7.892454550E0,4.177494049E-1,2.388224602E-1,-1.380481720E-1,5.006076613E-1
7.897519914E0,3.806352615E-1,2.153170109E-1,-9.682178497E-2,4.479052082E-1
7.902585800E0,2.633385658E-1,2.019917965E-1,3.059673309E-2,3.332927335E-1
7.907651685E0,1.758313179E-1,1.366441250E-1,2.321691513E-1,3.216998354E-1
7.912722518E0,7.040810585E-2,5.503344536E-2,4.671468735E-1,4.756176856E-1
7.917787362E0,-9.545481205E-2,-9.082078934E-2,7.354202271E-1,7.471298062E-1
7.922854810E0,-2.398855686E-1,-1.863257885E-1,1.034558296E0,1.078226903E0
7.927919393E0,-2.718361616E-1,-2.224094868E-1,1.362235069E0,1.406785436E0
7.932999862E0,-2.439764738E-1,-3.194670677E-1,1.543963432E0,1.595433110E0
7.938057414E0,-1.660063267E-1,-3.728280067E-1,1.656717300E0,1.706244718E0
7.943098039E0,-4.949462414E-2,-3.612325191E-1,1.714907646E0,1.753238970E0
7.948165227E0,1.262843609E-2,-3.086822033E-1,1.560610771E0,1.590896024E0
7.953218612E0,4.680347443E-2,-2.483849525E-1,1.275320053E0,1.300125720E0
7.958319393E0,5.078434944E-2,-2.303833961E-1,9.261054993E-1,9.556814088E-1
7.963386320E0,2.399230003E-2,-2.680857182E-1,6.923322678E-1,7.428119222E-1
7.968450123E0,-2.927768230E-2,-3.635046482E-1,5.164489746E-1,6.322280881E-1
7.973505591E0,-6.409358978E-2,-4.923453331E-1,4.055843353E-1,6.411010594E-1
7.978560227E0,-9.776449203E-2,-5.876069069E-1,3.717403412E-1,7.021614161E-1
7.983628300E0,-1.165698767E-1,-5.968949795E-1,3.743476868E-1,7.141486843E-1
7.988692727E0,-3.042769432E-2,-5.706686974E-1,4.685955048E-1,7.390333915E-1
7.993758716E0,8.876609802E-2,-6.026537418E-1,5.635776520E-1,8.298739197E-1
7.998826789E0,1.570285559E-1,-6.572420597E-1,6.307497025E-1,9.243756161E-1
8.003891998E0,2.078241110E-1,-7.826833725E-1,6.679306030E-1,1.049721588E0
8.008963977E0,3.009901047E-1,-9.121131897E-1,6.441459656E-1,1.156490181E0
8.014024393E0,3.293224573E-1,-1.040895700E0,6.623144150E-1,1.276940689E0
8.019095383E0,3.365597725E-1,-1.159497499E0,5.548152924E-1,1.328731327E0
8.024170383E0,3.255604506E-1,-1.250903606E0,3.001060486E-1,1.326956322E0
8.029274810E0,3.062934875E-1,-1.336064816E0,-3.970146179E-2,1.371299055E0
8.034288352E0,3.127212524E-1,-1.435233474E0,-4.100170135E-1,1.525058575E0
8.039355643E0,3.177654743E-1,-1.534145117E0,-8.345212936E-1,1.775106173E0
8.044411477E0,2.232153416E-1,-1.603085518E0,-1.260837078E0,2.051686722E0
8.049513248E0,1.505026817E-1,-1.749273896E0,-1.590878487E0,2.369283558E0
8.054575643E0,1.280376911E-1,-1.830424428E0,-1.803542137E0,2.572860563E0
8.059637102E0,4.479885101E-3,-1.870277047E0,-1.652510643E0,2.495745926E0
8.064704550E0,-1.642060280E-2,-1.959753156E0,-1.356022835E0,2.383212117E0
8.069773300E0,1.009972095E-1,-2.154425859E0,-1.055153370E0,2.401062235E0
8.074833977E0,3.206272125E-1,-2.117838621E0,-7.758083344E-1,2.278139769E0
8.079901164E0,5.706324577E-1,-1.958894849E0,-5.008382797E-1,2.100887768E0
8.084971477E0,8.731250763E-1,-1.886171699E0,-2.302522659E-1,2.091173637E0
8.090040748E0,1.085354567E0,-1.842177391E0,1.663494110E-2,2.138197558E0
8.095074602E0,1.323745728E0,-1.810358882E0,3.424396515E-1,2.268692784E0
8.100145748E0,1.574668884E0,-1.803069353E0,5.723562241E-1,2.461347768E0
8.105239498E0,1.885236979E0,-1.765282989E0,6.821088791E-1,2.671257198E0
8.110301998E0,2.161461592E0,-1.756603718E0,6.975250244E-1,2.871256518E0
8.115367362E0,2.274598837E0,-1.800680161E0,6.064910889E-1,2.963794924E0
8.120436893E0,2.325548887E0,-1.942824721E0,5.979995728E-1,3.088745540E0
8.125499654E0,2.350642443E0,-2.014972210E0,6.022243500E-1,3.154093700E0
8.130565800E0,2.259377718E0,-2.036072254E0,4.992532730E-1,3.082147259E0
8.135631425E0,2.092194080E0,-2.072852135E0,3.633384705E-1,2.967491683E0
8.140696789E0,2.030838966E0,-2.122633457E0,2.494735718E-1,2.948239604E0
8.145767102E0,2.040603161E0,-2.087098598E0,5.976676941E-2,2.919522887E0
8.150807518E0,2.077254772E0,-1.992872119E0,-3.541660309E-2,2.878850640E0
8.155900487E0,2.003336191E0,-1.966781497E0,-2.400398254E-3,2.807417161E0
8.160940643E0,1.875256777E0,-2.030646324E0,9.215927124E-2,2.765611289E0
8.166007310E0,1.814320326E0,-2.132175922E0,2.557773590E-1,2.811290534E0
8.171071998E0,1.821849823E0,-2.195113659E0,3.308992386E-1,2.871786040E0
8.176139758E0,1.813574553E0,-2.198614120E0,3.850069046E-1,2.875967146E0
8.181203716E0,1.767551184E0,-2.277010441E0,3.920450211E-1,2.909074257E0
