time,ax,ay,az,am,gx,gy,gz,gm,velx,distx,button
1649248876.446849,0.017578125,-0.01116943359375,0.9788818359375,0.9791033630080592,-0.91552734375,-1.64794921875,-32.16552734375,28.00629253865208,0,0,1
1649248876.4519608,0.01812744140625,-0.01116943359375,0.98016357421875,0.9803948146558188,-3.5400390625,-2.9296875,-35.15625,31.153589779798796,0.000144012228702195,5.808484251391965e-07,1
1649248876.4568937,0.01812744140625,-0.01116943359375,0.98016357421875,0.9803948146558188,0.54931640625,2.74658203125,-27.34375,26.019452475036392,0.00023380009224638343,1.5165282146473863e-06,1
1649248876.4617634,0.0003662109375,-0.0040283203125,0.97979736328125,0.9798057126634242,1.40380859375,2.74658203125,-23.37646484375,27.392004214443848,0.00027882274298463017,2.76450446304137e-06,1
1649248876.4669323,0.0003662109375,-0.0040283203125,0.97979736328125,0.9798057126634242,-0.18310546875,1.8310546875,-23.62060546875,25.300158211624257,0.0002806744450936094,4.1790200018248375e-06,1
1649248876.4718883,-0.01519775390625,0.0025634765625,0.9810791015625,0.9812001562670909,0.48828125,-0.48828125,-20.01953125,19.271361283639607,0.00024319552903762087,5.502776200905744e-06,1
1649248876.4767563,-0.01519775390625,0.0025634765625,0.9810791015625,0.9812001562670909,-4.0283203125,-1.3427734375,-8.85009765625,13.789083248479432,0.0001689333948888816,6.509687275529051e-06,1
1649248876.482132,-0.02911376953125,0.0076904296875,0.978515625,0.9789788468880406,-0.18310546875,3.11279296875,-6.04248046875,11.931397381087582,5.753929872298613e-05,7.0790136957035385e-06,1
1649248876.487174,-0.02911376953125,0.0076904296875,0.978515625,0.9789788468880406,-0.54931640625,-4.2724609375,-2.38037109375,7.430763944831143,-9.762570698512718e-05,6.972201319129824e-06,1
1649248876.4921923,-0.01995849609375,0.00274658203125,0.9796142578125,0.9798214017813215,-3.47900390625,2.99072265625,-4.150390625,4.542508443930571,-0.00021919185383012518,6.1873528995467705e-06,1
1649248876.4977098,-0.01995849609375,0.00274658203125,0.9796142578125,0.9798214017813215,1.40380859375,-0.54931640625,2.9296875,9.539074422093094,-0.00032559138344367966,4.735222440543051e-06,1
1649248876.502699,-0.01995849609375,0.00274658203125,0.9796142578125,0.9798214017813215,-5.4931640625,2.0751953125,-6.77490234375,2.327353023063674,-0.0004309868745622225,2.7375785124237814e-06,1
1649248876.5076158,-0.01995849609375,0.00274658203125,0.9796142578125,0.9798214017813215,-2.38037109375,-2.01416015625,4.2724609375,6.182954717836462,-0.0005288116299198009,3.853959268098825e-07,1
1649248876.5126472,-0.01995849609375,0.00274658203125,0.9796142578125,0.9798214017813215,1.5869140625,2.50244140625,4.5166015625,7.136155714386729,-0.0006289490047493018,-2.5190090466942552e-06,1
1649248876.5175357,-0.01995849609375,0.00274658203125,0.9796142578125,0.9798214017813215,2.685546875,6.65283203125,6.28662109375,3.8228672277318356,-0.0007271972644957714,-5.856911118301729e-06,1
1649248876.5224311,0.0164794921875,-0.00677490234375,0.97998046875,0.9801424345961126,2.5634765625,2.0751953125,-4.08935546875,7.375411102992217,-0.0007356947680818848,-9.43051755355074e-06,1
1649248876.5276802,0.0164794921875,-0.00677490234375,0.97998046875,0.9801424345961126,0.42724609375,-0.6103515625,-1.220703125,10.142309451571117,-0.000655130272207316,-1.2830231481192854e-05,1
1649248876.5328884,0.01318359375,-0.005126953125,0.98016357421875,0.9802656400271235,6.28662109375,-0.54931640625,0.6103515625,7.16532978259913,-0.0005734742953791283,-1.621231068607478e-05,1
1649248876.5388472,0.01318359375,-0.005126953125,0.98016357421875,0.9802656400271235,2.99072265625,-2.13623046875,0.1220703125,5.99823754969284,-0.0004960066507919692,-1.93544800900251e-05,1
1649248876.543803,0.01318359375,-0.005126953125,0.98016357421875,0.9802656400271235,3.96728515625,3.173828125,6.7138671875,10.910962472117086,-0.000428499850386288,-2.1721455174068295e-05,1
1649248876.5487034,0.01318359375,-0.005126953125,0.98016357421875,0.9802656400271235,4.08935546875,1.220703125,2.9296875,5.416332809234268,-0.0003638910930021666,-2.366308790280585e-05,1
1649248876.5535755,0.01318359375,-0.005126953125,0.98016357421875,0.9802656400271235,9.27734375,0.8544921875,-3.72314453125,5.214131624554088,-0.00029960294341435656,-2.5280810834527913e-05,1
1649248876.5584517,0.01318359375,-0.005126953125,0.98016357421875,0.9802656400271235,0.30517578125,1.64794921875,1.28173828125,7.628417906241999,-0.00023536508524557576,-2.6584142877427407e-05,1
1649248876.563376,0.01318359375,-0.005126953125,0.98016357421875,0.9802656400271235,1.40380859375,1.8310546875,-0.18310546875,3.9052962092398413,-0.00017037599900504574,-2.7584201845252086e-05,1
1649248876.5682487,0.01318359375,-0.005126953125,0.98016357421875,0.9802656400271235,-1.220703125,7.26318359375,2.9296875,5.093053735058202,-0.00010636130900820717,-2.8256069217645445e-05,1
1649248876.573133,0.01318359375,-0.005126953125,0.98016357421875,0.9802656400271235,-3.0517578125,1.15966796875,-6.7138671875,7.7838371908837205,-4.186885053059086e-05,-2.861863073123829e-05,1
1649248876.5780852,0.01318359375,-0.005126953125,0.98016357421875,0.9788251318814647,0.06103515625,-0.30517578125,0.48828125,5.203761637461851,2.295050217071548e-05,-2.8665135291019474e-05,1
1649248876.5829961,0.0142822265625,-0.006591796875,0.97869873046875,0.9788251318814647,3.662109375,1.708984375,2.38037109375,7.355939204830292,9.081445023184642e-05,-2.838403905092244e-05,1
1649248876.587877,0.0142822265625,-0.006591796875,0.97869873046875,0.9795517261547652,0.732421875,-4.39453125,-1.15966796875,8.306389204570968,0.0001605927463970147,-2.7769892308898182e-05,1
1649248876.5927541,0.0142822265625,-0.00567626953125,0.97943115234375,0.9795517261547652,2.25830078125,5.31005859375,3.2958984375,6.464254116125641,0.00023027910356177017,-2.6816314264792827e-05,1
1649248876.5976741,0.0142822265625,-0.00567626953125,0.97943115234375,0.9835306872299979,-2.01416015625,-4.69970703125,-2.25830078125,7.707365250153497,0.0003005102844326757,-2.5511266856762145e-05,1
1649248876.602547,0.00970458984375,-0.00677490234375,0.98345947265625,0.9835306872299979,-1.64794921875,-3.662109375,-1.3427734375,3.3413612532155748,0.00035898892383556813,-2.3903441302356235e-05,1
1649248876.6074212,0.00970458984375,-0.00677490234375,0.98345947265625,0.9775607252435943,-3.90625,-3.35693359375,-4.39453125,3.3189883116021788,0.00040627512498758733,-2.2039043613752973e-05,1
1649248876.6123352,0.0128173828125,-0.01080322265625,0.9774169921875,0.9775607252435943,-2.44140625,1.3427734375,2.86865234375,6.538742750364736,0.00046170340647222474,-1.990288267000786e-05,1
1649248876.6172285,0.0128173828125,-0.01080322265625,0.9774169921875,0.978482422864997,-2.8076171875,-6.16455078125,-1.64794921875,6.774077494128175,0.0005243371779215522,-1.7493676301354698e-05,1
1649248876.6221633,0.0150146484375,-0.00823974609375,0.97833251953125,0.978482422864997,-1.64794921875,8.6669921875,2.9296875,2.6351358819485964,0.0005929102262598462,-1.474098248736063e-05,1
1649248876.6270401,0.0150146484375,-0.00823974609375,0.97833251953125,0.9843073889810215,-2.685546875,-0.1220703125,-4.21142578125,4.813271274937103,0.0006662275191047229,-1.1666765625300592e-05,1
1649248876.6319149,0.01373291015625,-0.0062255859375,0.98419189453125,0.9843073889810215,2.0751953125,6.7138671875,3.96728515625,3.3189883116021788,0.0007362920441664755,-8.24849736540817e-06,1
1649248876.6368515,0.01373291015625,-0.0062255859375,0.98419189453125,0.9824654415928755,-1.3427734375,-0.67138671875,2.74658203125,3.5221040151986105,0.0008040479442570359,-4.448606403709143e-06,1
1649248876.6417298,0.01300048828125,-0.00604248046875,0.98236083984375,0.9824654415928755,2.86865234375,4.57763671875,4.150390625,4.998551993506125,0.0008692927222000435,-3.6469838650583786e-07,1
1649248876.646637,0.01300048828125,-0.00604248046875,0.98236083984375,0.9793690026847606,-2.3193359375,2.13623046875,2.86865234375,6.203706478663383,0.0009330909233540297,4.057782980657759e-06,1
1649248876.6515265,0.01300048828125,-0.00823974609375,0.979248046875,0.9793690026847606,0.0,2.13623046875,-1.77001953125,1.2176475429235842,0.0009965636709239334,8.768393701962668e-06,1
1649248876.6563933,0.01300048828125,-0.00823974609375,0.979248046875,0.9790252854445807,3.96728515625,-4.150390625,5.0048828125,6.0870138252268,0.0010599434317555279,1.3781318043592367e-05,1
1649248876.6617365,0.013916015625,-0.00933837890625,0.9788818359375,0.9790252854445807,0.244140625,-2.685546875,-5.79833984375,8.547101424040674,0.0011307786335237324,1.9546563041702297e-05,1
1649248876.6667068,0.013916015625,-0.00933837890625,0.9788818359375,0.9790252854445807,-6.04248046875,4.7607421875,-14.5263671875,8.719914006566013,0.0012005693279206753,2.5392575201167028e-05,1
1649248876.6716099,0.013916015625,-0.00933837890625,0.9788818359375,0.9790252854445807,4.33349609375,-4.39453125,-18.1884765625,6.5725540165877945,0.001269225322175771,3.1485059281296385e-05,1
1649248876.6764894,0.013916015625,-0.00933837890625,0.9788818359375,0.9790252854445807,4.21142578125,5.43212890625,-9.09423828125,15.566477853186752,0.0013371480745263398,3.784578995047125e-05,1
1649248876.681364,0.013916015625,-0.00933837890625,0.9788818359375,0.9790252854445807,3.41796875,-3.23486328125,-9.521484375,8.863557248885083,0.0014050044701434672,4.45313453898942e-05,1
1649248876.6862478,0.013916015625,-0.00933837890625,0.9788818359375,0.9790252854445807,3.662109375,0.91552734375,2.5634765625,11.302715611973719,0.0014729006798006594,5.155199184142187e-05,1
1649248876.6911306,0.013916015625,-0.00933837890625,0.9788818359375,0.9790252854445807,1.3427734375,5.2490234375,-10.6201171875,9.74595950842622,0.0015407404862344265,5.88976588366992e-05,1
1649248876.6960323,0.013916015625,-0.00933837890625,0.9788818359375,0.9790252854445807,-2.38037109375,-2.0751953125,-3.41796875,9.374213185671536,0.0016090315184555948,6.662620654956583e-05,1
1649248876.7009168,0.013916015625,-0.00933837890625,0.9788818359375,0.9790252854445807,6.8359375,2.99072265625,-1.953125,8.526373213417546,0.0016770173097029328,7.465309569944581e-05,1
1649248876.7058127,0.013916015625,-0.00933837890625,0.9788818359375,0.9817612552259926,1.8310546875,-0.67138671875,-9.33837890625,16.253697634868352,0.001745205488987267,8.303750500295373e-05,1
1649248876.7110443,0.0238037109375,-0.00732421875,0.9814453125,0.9817612552259926,-0.42724609375,3.84521484375,-9.21630859375,10.10330042452242,0.0018373666098341346,9.179085213008656e-05,1
1649248876.716158,0.02069091796875,-0.01116943359375,0.98162841796875,0.9819099863516134,-0.6103515625,1.28173828125,-8.4228515625,20.015995364667354,0.001957628126547206,0.000102048086185841,1
1649248876.721715,0.02069091796875,-0.01116943359375,0.98162841796875,0.9819099863516134,3.0517578125,-2.685546875,-15.380859375,11.914525257566485,0.0020600244679371826,0.00011198947513901564,1
1649248876.7269468,0.031494140625,-0.0146484375,0.9810791015625,0.9816937715691084,4.45556640625,-3.0517578125,-9.58251953125,15.176290653275796,0.0022113489249022678,0.00012437545834157078,1
1649248876.7323847,0.031494140625,-0.0146484375,0.9810791015625,0.9816937715691084,0.30517578125,-1.953125,-17.27294921875,16.447360892043147,0.00236934884742368,0.00013586568920291066,1
1649248876.7379513,0.02197265625,-0.01043701171875,0.9818115234375,0.9821128226385004,-2.44140625,-4.82177734375,-25.08544921875,21.06844832759718,0.002522184731788002,0.0001498482335888108,1
1649248876.742955,0.02197265625,-0.01043701171875,0.9818115234375,0.9821128226385004,1.220703125,-1.40380859375,-20.20263671875,16.231794613003174,0.002639777594595216,0.00016366108172050607,1
1649248876.7478456,0.01776123046875,-0.00970458984375,0.98162841796875,0.9818370492783568,2.8076171875,0.79345703125,-12.3291015625,12.80924220652637,0.0027371583491913043,0.00017683900421590782,1
1649248876.7527351,0.01776123046875,-0.00970458984375,0.98162841796875,0.9818370492783568,-3.23486328125,2.25830078125,-16.54052734375,18.529774856393633,0.0028241075415280648,0.0001904514501108812,1
1649248876.757643,0.01190185546875,-0.0106201171875,0.98236083984375,0.9824903361922667,-4.5166015625,-1.953125,-16.66259765625,16.115708601791894,0.0028964918237761594,0.00020441093766921953,1
1649248876.7625177,0.01190185546875,-0.0106201171875,0.98236083984375,0.9824903361922667,3.173828125,0.3662109375,-7.2021484375,14.782356994984898,0.0029548475504270755,0.00021875572457909654,1
1649248876.7674885,0.00439453125,-0.01080322265625,0.97796630859375,0.9780358491738191,1.8310546875,10.6201171875,-13.18359375,14.960089079303518,0.002994724956806749,0.00023331438256573613,1
1649248876.773399,0.00439453125,-0.01080322265625,0.97796630859375,0.9780358491738191,0.91552734375,-0.54931640625,-10.7421875,9.298401074217145,0.0030183797352947295,0.00024949798115963574,1
1649248876.7784612,0.0069580078125,0.0,0.97998046875,0.9800051698864596,0.30517578125,2.197265625,-5.37109375,17.523574957816557,0.0030502709123538807,0.0002665458337368261,1
1649248876.7833574,0.0069580078125,0.0,0.97998046875,0.9800051698864596,-1.15966796875,-4.150390625,-9.46044921875,12.560940251858435,0.003084671901888214,0.0002817116764057097,1
1649248876.7882314,0.01153564453125,-0.00018310546875,0.980712890625,0.9807807494340451,-1.46484375,1.953125,-10.7421875,15.211964287019567,0.0031297298264689744,0.00029685244141990086,1
1649248876.7931087,0.01153564453125,-0.00018310546875,0.980712890625,0.9807807494340451,1.28173828125,2.25830078125,-6.16455078125,4.382647234134825,0.003185995708918199,0.00031225512956589013,1
1649248876.798015,0.01409912109375,-0.01171875,0.979248046875,0.9794196504183899,-0.1220703125,4.33349609375,-1.8310546875,5.987047958034121,0.003248886176152155,0.0003280420001878989,1
1649248876.8028843,0.01409912109375,-0.01171875,0.979248046875,0.9794196504183899,-0.48828125,2.50244140625,-3.90625,18.01168040277903,0.0033175715507240966,0.00034403660033291254,1
1649248876.8077688,-0.00421142578125,0.00347900390625,0.98309326171875,0.9831084379721808,1.3427734375,-1.28173828125,-6.77490234375,6.634046999082012,0.0033416040168958716,0.0003602205264738251,1
1649248876.81267,-0.00421142578125,0.00347900390625,0.98309326171875,0.9831084379721808,2.8076171875,2.685546875,-6.2255859375,8.354016306626741,0.003320886789879296,0.00037660789048179783,1
1649248876.8175633,0.01702880859375,-0.0018310546875,0.98309326171875,0.9832424392387678,1.40380859375,1.8310546875,-8.23974609375,13.90490171775665,0.0033521327350172214,0.0003928755774787506,1
1649248876.8224757,0.01702880859375,-0.0018310546875,0.98309326171875,0.9832424392387678,-2.38037109375,-3.23486328125,-13.916015625,17.39812455154935,0.0034357318727415986,0.0004095373311497246,1
1649248876.8273695,0.0281982421875,-0.0087890625,0.9796142578125,0.9800594280918015,6.4697265625,-3.0517578125,-10.498046875,9.180669529108474,0.003546947416907642,0.00042670808324433724,1
1649248876.8323166,0.0281982421875,-0.0087890625,0.9796142578125,0.9800594280918015,0.54931640625,1.220703125,-8.72802734375,12.555155661684065,0.0036842912741121836,0.0004443185110076615,1
1649248876.8378959,0.01959228515625,-0.00714111328125,0.9818115234375,0.9820329529558588,-4.57763671875,6.04248046875,-7.75146484375,5.030496694905164,0.003810059897659812,0.00046404112725913476,1
1649248876.8431945,0.01959228515625,-0.00714111328125,0.9818115234375,0.982213047425382,-2.74658203125,-1.52587890625,-10.68115234375,7.29797748675001,0.0039157683568191715,0.0004848831422154731,1
1649248876.848355,0.00457763671875,-0.0069580078125,0.982177734375,0.982213047425382,-0.30517578125,-5.79833984375,-9.46044921875,5.9655425755924885,0.003981104244303424,0.000506229888076414,1
1649248876.8533044,0.00457763671875,-0.0069580078125,0.982177734375,0.9825869226315855,1.46484375,0.42724609375,-4.33349609375,9.989089079806144,0.004003980946436059,0.0005261825871038439,1
1649248876.8581727,0.01739501953125,-0.01190185546875,0.98236083984375,0.9825869226315855,4.57763671875,4.21142578125,-0.91552734375,10.211128740920394,0.004057515114254784,0.0005458236117516042,1
1649248876.8630412,0.01739501953125,-0.01190185546875,0.98236083984375,0.983364915323777,-0.67138671875,-2.74658203125,-10.80322265625,9.872802067258108,0.004142227779084351,0.0005657897310814555,1
1649248876.867902,0.00640869140625,-0.01153564453125,0.9832763671875,0.983364915323777,-3.173828125,-1.03759765625,0.1220703125,9.814521447698288,0.004200050032522995,0.0005860541891378008,1
1649248876.8730092,0.00640869140625,-0.01153564453125,0.9832763671875,0.9795668888226163,6.9580078125,1.64794921875,0.6103515625,4.621373094771959,0.0042313180238124914,0.0006066225022482536,1
1649248876.8784466,-0.0142822265625,-0.0205078125,0.979248046875,0.9795668888226163,-4.0283203125,-2.8076171875,-3.35693359375,7.901636881192509,0.004209450838970952,0.0006300663768140924,1
1649248876.8834636,0.04888916015625,-0.00531005859375,0.98016357421875,0.9813964433032797,5.43212890625,0.3662109375,-9.09423828125,18.56572676076773,0.00429785241431091,0.000651799602245276,1
1649248876.8883522,0.04888916015625,-0.00531005859375,0.98016357421875,0.9813964433032797,-0.54931640625,-0.8544921875,-12.26806640625,15.877706709969583,0.0045375830959528685,0.0006734621238626403,1
1649248876.8932316,0.059326171875,0.00421142578125,0.978515625,0.9803214570464086,1.0986328125,-2.9296875,-16.4794921875,22.269887683466987,0.004801690382009838,0.0006962552912051041,1
1649248876.8981097,0.059326171875,0.00421142578125,0.978515625,0.9803214570464086,0.6103515625,-3.84521484375,-20.56884765625,11.170767615861443,0.005091043633001391,0.0007203803498256863,1
1649248876.9030106,-0.00384521484375,-0.005859375,0.97943115234375,0.9794562267574755,-2.74658203125,2.8076171875,-13.0615234375,12.000976969765256,0.005226435663644224,0.0007455596687497472,1
1649248876.9079156,-0.00384521484375,-0.005859375,0.97943115234375,0.9794562267574755,-2.685546875,-4.638671875,-17.822265625,19.41733518835764,0.005207502515986562,0.0007712470880791205,1
1649248876.9128613,0.00091552734375,-0.003662109375,0.9781494140625,0.9781566978077714,-5.2490234375,-2.3193359375,-10.55908203125,14.112985902974774,0.005200330728257541,0.0007967250762829503,1
1649248876.917763,0.00091552734375,-0.003662109375,0.9781494140625,0.9781566978077714,0.18310546875,-3.41796875,-17.333984375,20.80260434466868,0.0052048593570361845,0.0008224595579394527,1
1649248876.9226665,0.00054931640625,0.00018310546875,0.980712890625,0.9807130615598887,-6.53076171875,2.13623046875,-1.64794921875,14.90595482587962,0.0052084520502830856,0.0008479993696572236,1
1649248876.9278557,0.00054931640625,0.00018310546875,0.980712890625,0.9807130615598887,-2.62451171875,-4.69970703125,-14.83154296875,6.7044278459270075,0.0052111397599219345,0.0008734899949348653,1
1649248876.933078,-0.0018310546875,0.00018310546875,0.98016357421875,0.9801653016273104,6.8359375,-3.60107421875,-2.44140625,11.24008430493461,0.005207658366998658,0.000901790606206725,1
1649248876.9383879,-0.0018310546875,0.00018310546875,0.98016357421875,0.9801653016273104,1.64794921875,-7.14111328125,-13.18359375,10.632562470421874,0.005198519036639482,0.0009277607461805042,1
1649248876.9439783,0.00677490234375,-0.0025634765625,0.9803466796875,0.9803734406276822,4.39453125,0.0,-7.87353515625,17.910048755918048,0.005212389689404517,0.0009569707352247141,1
1649248876.949023,0.00677490234375,-0.0025634765625,0.9803466796875,0.9803734406276822,-3.173828125,0.54931640625,-10.009765625,5.9257561840917825,0.005248972156550735,0.0009852148638199703,1
1649248876.9547405,0.00677490234375,-0.0025634765625,0.9803466796875,0.9803734406276822,6.103515625,2.44140625,3.47900390625,5.772906288000896,0.005283071965095587,0.0010117200937046038,1
1649248876.9605443,0.00677490234375,-0.0025634765625,0.9803466796875,0.9803734406276822,-3.41796875,2.01416015625,-3.35693359375,3.290242180650282,0.005324740894138813,0.0010443416857887338,1
1649248876.9657693,0.0003662109375,-0.0040283203125,0.97906494140625,0.9790732970344022,3.90625,2.50244140625,-3.60107421875,5.876199092648537,0.0053438548420672305,0.001072897315049874,1
1649248876.971246,0.0003662109375,-0.0040283203125,0.97906494140625,0.9804228908711016,1.77001953125,-1.0986328125,-0.244140625,6.999910234829412,0.005345852179743815,0.0011020484850450566,1
1649248876.9764538,0.01171875,-0.00347900390625,0.9803466796875,0.9804228908711016,2.99072265625,2.86865234375,-0.54931640625,6.39268602186336,0.0053781153037562035,0.0011306781756675035,1
1649248876.9817119,0.01263427734375,-0.0076904296875,0.98162841796875,0.9817398426449891,-1.03759765625,0.79345703125,1.46484375,4.04631324315606,0.005440029868623242,0.0011581819739247753,1
1649248876.9878142,0.01263427734375,-0.0076904296875,0.98162841796875,0.9817398426449891,3.11279296875,3.96728515625,2.3193359375,3.2578140002642866,0.005511275521712378,0.0011890595968977666,1
1649248876.9932675,0.0142822265625,-0.0062255859375,0.9803466796875,0.9804704749711505,3.60107421875,-3.72314453125,0.06103515625,9.831966128643254,0.005591271554294508,0.0012220564422804484,1
1649248876.9985666,0.0142822265625,-0.0062255859375,0.9803466796875,0.9804704749711505,-0.6103515625,-6.8359375,-5.06591796875,10.035040973908501,0.0056674140723771416,0.001252068032915987,1
1649248877.0038686,0.01318359375,-0.005859375,0.98199462890625,0.9821006010690958,1.40380859375,1.28173828125,-0.48828125,4.111613719018382,0.005740208936913405,0.0012823025703226172,1
1649248877.009162,0.01318359375,-0.005859375,0.98199462890625,0.9821006010690958,-0.18310546875,-0.3662109375,-3.41796875,2.368604481437043,0.0058100574315176345,0.0013129000209651165,1
1649248877.014448,0.0146484375,-0.00604248046875,0.97998046875,0.9801085692018392,1.8310546875,-4.21142578125,3.173828125,4.4249435938456685,0.005883544195967261,0.0013437754156011708,1
1649248877.0197802,0.0146484375,-0.00604248046875,0.97998046875,0.9801085692018392,2.86865234375,4.7607421875,4.39453125,8.599028266854955,0.005961548282357398,0.0013753134419940338,1
1649248877.0250762,0.0146484375,-0.00604248046875,0.97998046875,0.9801085692018392,4.21142578125,2.197265625,2.0751953125,8.455076630491538,0.006039248524757568,0.001407141574547694,1
1649248877.030467,0.0146484375,-0.00604248046875,0.97998046875,0.980830230416627,4.2724609375,1.77001953125,1.77001953125,5.080603948158388,0.00611798952013487,0.00143981649379057,1
1649248877.0357876,0.01318359375,-0.00750732421875,0.980712890625,0.980830230416627,-2.99072265625,3.72314453125,-0.54931640625,5.292138741930021,0.0061917350758449174,0.0014724331387207948,1
1649248877.0411212,0.01263427734375,-0.0047607421875,0.9840087890625,0.9841014107206748,-3.35693359375,3.662109375,-0.06103515625,4.950248436521391,0.006261033246119041,0.001505857817944969,1
1649248877.047046,0.01263427734375,-0.0047607421875,0.9840087890625,0.9841014107206748,4.21142578125,1.5869140625,2.25830078125,3.5347734950122702,0.006336143611406442,0.0015433027200005183,1
1649248877.052322,0.015380859375,-0.00421142578125,0.9854736328125,0.9856026521427844,3.173828125,0.3662109375,5.126953125,3.4896954001276383,0.006409960216842592,0.001576887211362588,1
1649248877.0575814,0.015380859375,-0.00421142578125,0.9854736328125,0.9856026521427844,3.5400390625,-1.15966796875,-1.5869140625,5.199106308361048,0.006490984407719225,0.0016108673867957102,1
1649248877.062848,0.012451171875,-0.009521484375,0.980712890625,0.9808381437239313,-2.01416015625,1.15966796875,0.0,3.206524789200121,0.00656424555927515,0.0016452321506398668,1
1649248877.0681083,0.012451171875,-0.009521484375,0.980712890625,0.9808381437239313,-1.52587890625,-0.8544921875,7.50732421875,3.1767611522639414,0.006629697047173977,0.0016799101385237911,1
1649248877.0733764,0.01300048828125,-0.00640869140625,0.979248046875,0.9793553090322192,-1.28173828125,-2.50244140625,-1.3427734375,2.535715097392699,0.0066969199979212135,0.0017151084130469455,1
1649248877.07866,0.01300048828125,-0.00640869140625,0.979248046875,0.9793553090322192,2.8076171875,-1.28173828125,-3.72314453125,5.857149337223336,0.006765317943063565,0.001750522060298517,1
1649248877.0840082,0.01226806640625,-0.006591796875,0.9774169921875,0.9775162064417392,-3.2958984375,-0.244140625,-0.6103515625,7.01081166470092,0.006832201863289811,0.0017865136491032711,1
1649248877.0893548,0.01226806640625,-0.006591796875,0.9774169921875,0.9832447068215975,2.0751953125,5.0048828125,6.04248046875,5.611916266588181,0.006898147446918301,0.001823416607919317,1
1649248877.0946498,0.01629638671875,-0.00567626953125,0.98309326171875,0.9832447068215975,1.8310546875,-4.57763671875,3.5400390625,6.15396629615111,0.006974140138481744,0.0018603223546228669,1
1649248877.0999506,0.015380859375,-0.0054931640625,0.98382568359375,0.9839612397778891,-0.91552734375,3.72314453125,-4.7607421875,6.576237151657805,0.00705794583336683,0.0018974458063294236,1
1649248877.1058342,0.015380859375,-0.0054931640625,0.98382568359375,0.9839612397778891,5.18798828125,-4.39453125,-4.08935546875,8.69210058289169,0.007146615891542751,0.0019383901802360734,1
1649248877.111195,0.012451171875,-0.0062255859375,0.980712890625,0.9808116860230455,-1.220703125,-1.8310546875,1.708984375,5.132036867572731,0.0072227502896566875,0.001977697517729968,1
1649248877.1164982,0.012451171875,-0.0062255859375,0.980712890625,0.9808116860230455,3.96728515625,1.220703125,3.23486328125,5.99947954940585,0.007289095323358197,0.0020163600988882804,1
1649248877.1218085,0.01116943359375,-0.00604248046875,0.97686767578125,0.9769502156216978,-2.01416015625,1.0986328125,1.40380859375,6.1922865762227515,0.007351642590947449,0.00205512871357268,1
1649248877.1271021,0.01116943359375,-0.00604248046875,0.97686767578125,0.9769502156216978,-3.23486328125,-0.30517578125,-0.54931640625,6.77490234375,0.007410739897750318,0.0020941824865215626,1
1649248877.1323986,0.01446533203125,-0.00439453125,0.9814453125,0.981561744957445,0.91552734375,4.2724609375,-0.3662109375,3.783195121413998,0.00747873677755706,0.0021336772090669795,1
1649248877.1377213,0.01446533203125,-0.00439453125,0.9814453125,0.981561744957445,-0.48828125,1.46484375,-0.244140625,5.242987422486388,0.007555182965006679,0.002173402735043836,1
1649248877.1430442,0.01446533203125,-0.00439453125,0.9814453125,0.981561744957445,-3.173828125,-5.126953125,-8.544921875,9.260262273839484,0.007632325810845941,0.0022138998230348678,1
1649248877.1489902,0.01446533203125,-0.00439453125,0.9814453125,0.981561744957445,-3.0517578125,1.40380859375,-4.5166015625,6.843018270592755,0.007711558631854132,0.002255922337519582,1
1649248877.155065,0.01446533203125,-0.00439453125,0.9814453125,0.981561744957445,3.96728515625,-1.28173828125,-8.6669921875,7.448039865252895,0.007798216727678664,0.0023023798815434513,1
1649248877.1615102,0.0062255859375,-0.00439453125,0.97998046875,0.9800100963544417,-2.3193359375,4.638671875,-1.5869140625,2.469473672380848,0.007865062689234037,0.0023529830966987847,1
1649248877.1676111,0.0062255859375,-0.00439453125,0.97998046875,0.9800100963544417,4.08935546875,-2.13623046875,-4.2724609375,3.762954746532801,0.007903117053501774,0.0024011751915307593,1
1649248877.1734164,0.0062255859375,-0.00439453125,0.97998046875,0.9800100963544417,8.1787109375,2.0751953125,1.220703125,11.565960804337394,0.00794128422421636,0.0024497437900938635,1
1649248877.1796875,0.01336669921875,-0.00384521484375,0.98162841796875,0.9817269504750443,-4.7607421875,-0.67138671875,-2.197265625,4.261110760670669,0.00799864846339915,0.0024964143088188444,1
1649248877.1856663,0.01336669921875,-0.00384521484375,0.98162841796875,0.9817269504750443,-3.72314453125,3.7841796875,-3.7841796875,5.587634382402745,0.008080347048235126,0.0025455525125513655,1
1649248877.192246,0.0135498046875,-0.00494384765625,0.9814453125,0.9815512927325502,-0.9765625,4.57763671875,4.82177734375,6.21420624326681,0.008164491926436312,0.002596336225090059,1
1649248877.1985073,0.0172119140625,-0.00421142578125,0.97906494140625,0.9792252782601303,-3.84521484375,3.90625,-3.96728515625,9.659379939482507,0.008265391705208458,0.0026502269597774714,1
1649248877.2047477,0.0172119140625,-0.00421142578125,0.97906494140625,0.9792252782601303,4.150390625,-2.44140625,0.1220703125,8.63383222400244,0.008368881404749118,0.0027002352249819034,1
1649248877.211399,0.0172119140625,-0.00421142578125,0.97906494140625,0.9792252782601303,2.25830078125,-0.1220703125,-2.38037109375,7.70422288912994,0.008482621997245587,0.0027559146797607043,1
1649248877.2174358,0.0172119140625,-0.00421142578125,0.97906494140625,0.979856970835789,2.8076171875,-3.662109375,-10.3759765625,6.797135446754365,0.008592209705966525,0.00281027213461308,1
1649248877.223106,0.01995849609375,-0.0087890625,0.9796142578125,0.979856970835789,3.96728515625,-3.60107421875,-1.8310546875,10.588852034243688,0.008701989172550384,0.002861348997093155,1
1649248877.229465,0.030029296875,-0.0146484375,0.97943115234375,0.9800008763125696,-0.18310546875,-3.96728515625,-10.43701171875,7.880156342678846,0.008845958836900536,0.0029118887796063366,1
1649248877.2354934,0.030029296875,-0.0146484375,0.97943115234375,0.9800008763125696,-0.3662109375,-1.708984375,-9.765625,12.763646424201744,0.009042345081979875,0.002970381938005786,1
1649248877.2412646,0.03387451171875,-0.01025390625,0.98016357421875,0.9808023538730127,-0.79345703125,5.126953125,-15.9912109375,16.155419016557268,0.009231041149178054,0.0030243398505636005,1
1649248877.2474725,0.03387451171875,-0.01025390625,0.98016357421875,0.9787179829030436,-2.9296875,-0.42724609375,-11.962890625,9.003875136580259,0.009421682516403962,0.0030768274077514037,1
1649248877.2538958,0.03094482421875,-0.012451171875,0.9781494140625,0.9787179829030436,5.37109375,-0.54931640625,-14.0380859375,15.482851979390803,0.009633095069148112,0.0031389758255509605,1
1649248877.2597435,0.03094482421875,-0.012451171875,0.9781494140625,0.9787179829030436,7.62939453125,4.2724609375,-10.8642578125,14.413345856671416,0.009824475746427197,0.0031991442571853894,1
1649248877.2655082,0.03094482421875,-0.012451171875,0.9781494140625,0.9787179829030436,1.46484375,5.37109375,-13.5498046875,10.240455160865794,0.01000536516221473,0.003257102387950122,1
1649248877.271346,0.00091552734375,-0.0069580078125,0.97796630859375,0.9779914891283675,-3.72314453125,-1.3427734375,-10.3759765625,14.936289191552572,0.01009642720600823,0.0033145565655467524,1
1649248877.277308,-0.00164794921875,-0.0091552734375,0.97540283203125,0.9754471894997319,-1.89208984375,5.126953125,-8.36181640625,6.591231710436437,0.010094254153955262,0.003374469538046148,1
1649248877.28311,-0.00164794921875,-0.0091552734375,0.97540283203125,0.9754471894997319,0.06103515625,-2.3193359375,-4.57763671875,3.640684397462583,0.010084613131766673,0.00343349590397683,1
1649248877.288329,-0.009521484375,-0.0054931640625,0.977783203125,0.9778449906961256,-2.99072265625,-4.150390625,4.2724609375,3.925751643282715,0.010052500008896459,0.0034913919094555117,1
1649248877.2932022,-0.009521484375,-0.0054931640625,0.977783203125,0.9778449906961256,0.18310546875,-1.28173828125,0.91552734375,4.429151014777035,0.010005331896536518,0.003541073767438515,1
1649248877.2980661,-0.0146484375,-0.00421142578125,0.982177734375,0.9822959914049891,1.40380859375,-2.38037109375,10.80322265625,9.626542549874205,0.009946556681825314,0.003589591778425559,1
1649248877.3029256,-0.0146484375,-0.00421142578125,0.982177734375,0.9822959914049891,-1.5869140625,1.8310546875,12.8173828125,15.113197016832519,0.009875446710793767,0.0036377041483297333,1
1649248877.3078096,-0.0146484375,-0.00421142578125,0.982177734375,0.9822959914049891,-7.2021484375,2.38037109375,8.4228515625,20.0241827794457,0.009803868750168476,0.0036857845414500724,1
1649248877.312769,-0.0146484375,-0.00421142578125,0.982177734375,0.9822959914049891,1.40380859375,3.96728515625,1.28173828125,3.642730300629095,0.009731714533700142,0.003733898024717466,1
1649248877.3176665,-0.0146484375,-0.00421142578125,0.982177734375,0.9822959914049891,-1.64794921875,2.0751953125,-2.25830078125,5.710294736914824,0.009659944487793837,0.003781402758863072,1
1649248877.3225453,-0.0146484375,-0.00421142578125,0.982177734375,0.9822959914049891,0.9765625,-4.638671875,-1.52587890625,1.9165427817514138,0.009587891552655492,0.0038287410187210257,1
1649248877.3273911,-0.0146484375,-0.00421142578125,0.982177734375,0.9822959914049891,1.708984375,-1.64794921875,-15.2587890625,6.503610231920158,0.009516914295090828,0.003875026048280608,1
1649248877.33229,-0.0146484375,-0.00421142578125,0.982177734375,0.9822959914049891,-2.25830078125,2.25830078125,-1.3427734375,5.618550523859891,0.009445151234103832,0.003921473864472984,1
1649248877.3371356,-0.0146484375,-0.00421142578125,0.982177734375,0.9822959914049891,5.859375,0.18310546875,-2.13623046875,3.243488831930279,0.009374219378514681,0.003967038208061608,1
1649248877.3419883,-0.0146484375,-0.00421142578125,0.982177734375,0.9822959914049891,2.25830078125,4.94384765625,2.74658203125,5.374560537781083,0.00930311289994279,0.004012369982438166,1
1649248877.347233,0.0194091796875,-0.005859375,0.9810791015625,0.9812885671677901,-2.38037109375,-2.50244140625,-14.16015625,4.145451018502668,0.00931541692261817,0.004060482121062793,1
1649248877.3521395,0.0194091796875,-0.005859375,0.9810791015625,0.9812885671677901,4.69970703125,7.14111328125,-3.23486328125,6.349123271732592,0.009411960643774364,0.004107058296534057,1
1649248877.3570793,0.0194091796875,-0.005859375,0.9810791015625,0.9812885671677901,-0.06103515625,-0.1220703125,-1.46484375,8.101368062142468,0.009507907416264061,0.0041538222583685875,1
1649248877.361939,0.0194091796875,-0.005859375,0.9810791015625,0.9812885671677901,2.5634765625,1.220703125,3.23486328125,5.60095256214046,0.009602345620805863,0.004200314124954858,1
1649248877.3667877,0.0194091796875,-0.005859375,0.9810791015625,0.9812885671677901,0.244140625,1.953125,5.37109375,7.408421017142545,0.009696441389678512,0.004247094417355122,1
1649248877.371698,0.0194091796875,-0.005859375,0.9810791015625,0.9812885671677901,1.64794921875,5.31005859375,-6.28662109375,5.399455701805779,0.009791768075956497,0.004294951834818434,1
1649248877.3765538,0.0194091796875,-0.005859375,0.9810791015625,0.9812885671677901,3.0517578125,3.2958984375,5.0048828125,6.122407286609065,0.009885951767500956,0.00434269523062068,1
1649248877.3814628,0.0194091796875,-0.005859375,0.9810791015625,0.9812885671677901,0.244140625,-1.708984375,2.86865234375,3.2646677539834794,0.009981111863453407,0.004391397744375876,1
1649248877.3863204,0.0194091796875,-0.005859375,0.9810791015625,0.9812885671677901,-5.92041015625,1.52587890625,1.3427734375,5.614570910192935,0.010075443635287229,0.0044401368061894484,1
1649248877.3911774,0.0194091796875,-0.005859375,0.9810791015625,0.9812885671677901,-1.708984375,3.72314453125,-6.7138671875,8.465204320110258,0.010169729132030625,0.0044893100891863534,1
1649248877.3963256,-0.00128173828125,-0.0054931640625,0.9810791015625,0.9810953170957047,1.77001953125,7.9345703125,-0.54931640625,4.67467142062173,0.01021369230147684,0.004538743836196975,1
1649248877.4015367,-0.00128173828125,-0.0054931640625,0.9810791015625,0.9810953170957047,2.5634765625,-0.3662109375,2.0751953125,5.740550320325926,0.010206816215941217,0.004593518342545397,1
1649248877.4065037,0.00604248046875,-0.00531005859375,0.977783203125,0.9778162918492764,0.1220703125,-0.67138671875,-0.48828125,12.311110258336694,0.010218876050203107,0.00464525821821527,1
1649248877.4118567,0.00604248046875,-0.00531005859375,0.977783203125,0.9778162918492764,-3.90625,-3.2958984375,-2.38037109375,2.9328646915854404,0.010249872852000408,0.004697758657069942,1
1649248877.416828,0.00604248046875,-0.00531005859375,0.977783203125,0.9778162918492764,-3.60107421875,-2.44140625,8.544921875,6.900212699956555,0.01028142285940703,0.004751359370809316,1
1649248877.4216895,0.00604248046875,-0.00531005859375,0.977783203125,0.9778162918492764,1.708984375,-1.28173828125,-6.103515625,4.1481460785024895,0.010310912752174772,0.004801609079696545,1
1649248877.426543,0.00604248046875,-0.00531005859375,0.977783203125,0.9778162918492764,6.77490234375,-0.06103515625,8.85009765625,4.652304443398316,0.010340238412027247,0.004851721664895245,1
1649248877.4314022,0.00604248046875,-0.00531005859375,0.977783203125,0.9778162918492764,-3.2958984375,-0.79345703125,-6.04248046875,4.618550881931791,0.010369591444032267,0.00490202354851136,1
1649248877.4362552,0.01190185546875,-0.006591796875,0.97943115234375,0.9795256444478859,-0.91552734375,-2.13623046875,-2.8076171875,5.203045704097047,0.01041314416215755,0.004952465349694825,1
1649248877.441107,0.01190185546875,-0.006591796875,0.97943115234375,0.9795256444478859,-3.23486328125,4.33349609375,-1.0986328125,3.3071819297226726,0.010470884124515578,0.005003123123615984,1
1649248877.446218,0.01043701171875,-0.008056640625,0.9803466796875,0.9804353385339002,-6.591796875,-2.197265625,0.3662109375,7.128843542371892,0.01052505754341837,0.005054039847982026,1
1649248877.4517138,0.01043701171875,-0.008056640625,0.9803466796875,0.9804353385339002,0.18310546875,5.0048828125,3.662109375,4.640277785338919,0.010581563619780354,0.005111175567445126,1
1649248877.456727,0.0106201171875,-0.00970458984375,0.978515625,0.9786213743436489,-2.74658203125,-4.638671875,1.77001953125,9.20801863556939,0.010637453342496883,0.005167494972603301,1
1649248877.4616432,0.0106201171875,-0.00970458984375,0.978515625,0.9786213743436489,0.48828125,4.39453125,9.521484375,11.020353398151842,0.010690043673093896,0.005220301363486487,1
1649248877.4674637,-0.01702880859375,-0.00677490234375,0.982177734375,0.9823487066851048,-0.91552734375,-0.3662109375,10.55908203125,5.404627760562226,0.01067391431570286,0.005274076670776259,1
1649248877.4732215,-0.01702880859375,-0.00677490234375,0.982177734375,0.9823487066851048,-1.89208984375,-0.30517578125,14.0380859375,18.208537463594112,0.010570689213636797,0.00533846685860402,1
1649248877.4782228,-0.01702880859375,-0.00677490234375,0.982177734375,0.9823487066851048,-0.244140625,1.64794921875,12.02392578125,9.390690706502394,0.010477857671503443,0.005395839312356625,1
1649248877.4831324,0.02838134765625,-0.005859375,0.9796142578125,0.980042819105222,-5.0048828125,2.01416015625,12.3291015625,10.816318311846985,0.010505860060220584,0.0054476169104192545,1
1649248877.4880097,0.02838134765625,-0.005859375,0.9796142578125,0.980042819105222,1.708984375,-8.85009765625,6.103515625,6.605910274608857,0.010644718291587196,0.005499357439760648,1
1649248877.4930325,0.02764892578125,-0.0084228515625,0.9755859375,0.9760140003980757,4.57763671875,-1.8310546875,12.75634765625,5.7441183982816,0.010780889773741364,0.005551428518970435,1
1649248877.4985802,0.02764892578125,-0.0084228515625,0.9755859375,0.9760140003980757,3.41796875,-3.5400390625,2.38037109375,6.10778659162201,0.01092710072407499,0.005608825792658938,1
1649248877.5036535,0.03057861328125,-0.0062255859375,0.9814453125,0.9819412970940229,5.79833984375,4.33349609375,10.55908203125,5.133125585938953,0.011085882128099911,0.00566885327072723,1
1649248877.508558,0.03057861328125,-0.0062255859375,0.9814453125,0.9819412970940229,1.64794921875,-0.8544921875,-2.25830078125,8.266152348849399,0.011236146820010617,0.005723699001824631,1
1649248877.5134935,0.029296875,-0.00860595703125,0.98126220703125,0.981737178846268,2.5634765625,-1.40380859375,-4.5166015625,4.945354467518225,0.011384240118786693,0.005779647234023128,1
1649248877.518352,0.029296875,-0.00860595703125,0.98126220703125,0.981737178846268,4.39453125,-0.42724609375,0.48828125,6.166967541425662,0.011527347145602107,0.005835605576560149,1
1649248877.5232096,0.0230712890625,-0.005126953125,0.9810791015625,0.9813637315236556,1.8310546875,-4.7607421875,-0.48828125,6.248581248425864,0.011654599802568555,0.005891936830397676,1
1649248877.5280583,0.0230712890625,-0.005126953125,0.9810791015625,0.9813637315236556,1.03759765625,-4.33349609375,4.39453125,2.167392688545496,0.011766487994464114,0.005948729130965237,1
1649248877.5329022,0.015380859375,-0.00567626953125,0.98016357421875,0.9803006799427306,-4.33349609375,0.54931640625,1.220703125,2.9726063627651174,0.011859673148137517,0.006005984903301714,1
1649248877.5377555,0.015380859375,-0.00567626953125,0.98016357421875,0.9803006799427306,1.953125,4.21142578125,-4.0283203125,6.254838024637171,0.011934147929423489,0.006063590254781266,1
1649248877.5426376,0.01666259765625,-0.005126953125,0.97998046875,0.9801355247823995,-4.0283203125,-3.84521484375,-1.40380859375,2.810932358317738,0.012012554740067571,0.00612218519913842,1
1649248877.5474758,0.01666259765625,-0.005126953125,0.97998046875,0.9801355247823995,1.15966796875,-11.71875,-5.55419921875,4.795825507949998,0.012093184108380228,0.0061805083530714795,1
1649248877.5523424,0.01409912109375,-0.00439453125,0.9818115234375,0.9819225858870892,-3.96728515625,0.79345703125,-0.67138671875,6.04248046875,0.012167856912128627,0.00623940102969919,1
1649248877.5571938,0.01409912109375,-0.00439453125,0.9818115234375,0.9819225858870892,5.9814453125,2.74658203125,5.7373046875,4.582923379539339,0.012236367489094846,0.006298693643863701,1
1649248877.5620432,0.01318359375,-0.005859375,0.98126220703125,0.9813682582840121,0.6103515625,-1.220703125,8.4228515625,5.447195354239569,0.012302549621381331,0.0063582198995048135,1
1649248877.5672915,0.01318359375,-0.005859375,0.98126220703125,0.9813682582840121,2.5634765625,-6.591796875,-1.64794921875,9.532042298452419,0.01237081393628614,0.006422098925649011,1
1649248877.572195,0.0146484375,-0.0076904296875,0.9781494140625,0.9782893210399375,1.220703125,2.38037109375,-0.67138671875,4.536764144079134,0.012439994148735423,0.0064837694864119865,1
1649248877.5770435,0.0146484375,-0.0076904296875,0.9781494140625,0.9782893210399375,-4.39453125,0.30517578125,2.86865234375,7.239551727079562,0.012510985376138706,0.0065442298823205946,1
1649248877.5819046,0.01025390625,-0.01226806640625,0.9818115234375,0.981941706824492,-3.7841796875,3.35693359375,0.6103515625,10.701187960909724,0.012571464474604,0.006605146395621631,1
1649248877.586766,0.01025390625,-0.01226806640625,0.9818115234375,0.981941706824492,3.84521484375,-2.44140625,4.150390625,8.453093706732345,0.012621217007108498,0.006666264552631034,1
1649248877.591635,0.002197265625,-0.00897216796875,0.97998046875,0.9800240032293882,-0.6103515625,0.54931640625,-1.52587890625,6.042172202521768,0.012651572331378702,0.0067278783286903515,1
1649248877.5965006,0.002197265625,-0.00897216796875,0.97998046875,0.9800240032293882,1.77001953125,2.74658203125,8.7890625,3.7693841935167263,0.012662252971495036,0.00678940203682822,1
1649248877.601431,0.016845703125,-0.00347900390625,0.9766845703125,0.9768360307996773,-4.94384765625,4.5166015625,3.662109375,4.508346023588718,0.012709214504866395,0.006851970170621513,1
1649248877.606346,0.016845703125,-0.00347900390625,0.9766845703125,0.9768360307996773,-1.77001953125,1.46484375,7.568359375,4.988854025126818,0.012792147674190346,0.006914743115505258,1
1649248877.6112096,-0.00091552734375,-0.00604248046875,0.978515625,0.9785347097214656,1.3427734375,2.0751953125,7.32421875,10.66195260998497,0.012830764761019964,0.006976856153135578,1
1649248877.616384,-0.00091552734375,-0.00604248046875,0.978515625,0.9785347097214656,0.54931640625,1.64794921875,8.36181640625,6.150333136553034,0.01282628873741487,0.007039574966440349,1
1649248877.6214232,0.0263671875,0.00018310546875,0.9818115234375,0.982165530681533,5.9814453125,-1.52587890625,-2.99072265625,4.307629391746555,0.012893519349745475,0.007107518413936223,1
1649248877.6272955,0.0263671875,0.00018310546875,0.9818115234375,0.982165530681533,2.25830078125,6.103515625,2.5634765625,7.255486007674834,0.013031192109338008,0.007175199628859358,1
1649248877.632343,0.0263671875,0.00018310546875,0.9818115234375,0.982165530681533,1.77001953125,-2.25830078125,9.765625,7.879447195975506,0.013181400005123578,0.007249863229302119,1
1649248877.6379714,0.0263671875,0.00018310546875,0.9818115234375,0.982165530681533,-0.54931640625,3.35693359375,6.9580078125,6.254242410864013,0.013315659234649502,0.007317323491384199,1
1649248877.643052,0.01116943359375,-0.0062255859375,0.97796630859375,0.9780499041007857,-0.18310546875,3.96728515625,8.85009765625,4.138705690469894,0.013420841860352084,0.00739224273838431,1
1649248877.6482415,0.01116943359375,-0.0062255859375,0.97796630859375,0.9780499041007857,5.43212890625,-0.18310546875,2.44140625,10.291801545704601,0.013476615742547438,0.007459398141525704,1
1649248877.653324,0.01171875,-0.00750732421875,0.979248046875,0.9793469386928159,2.5634765625,-1.8310546875,0.42724609375,5.392551907009676,0.01353719627513783,0.007530898403336563,1
1649248877.6582572,0.01171875,-0.00750732421875,0.979248046875,0.9793469386928159,-1.0986328125,-1.89208984375,5.4931640625,3.1407910962569843,0.013595372271083761,0.00759824620910713,1
1649248877.6633468,0.0128173828125,-0.00714111328125,0.97979736328125,0.9799072169822751,0.244140625,4.94384765625,6.77490234375,6.089155470226674,0.01365566980530275,0.007665215631495768,1
1649248877.668332,0.0128173828125,-0.00714111328125,0.97979736328125,0.9799072169822751,-0.3662109375,2.5634765625,0.8544921875,2.6834653243384534,0.0137217109077028,0.0077357461145733854,1
1649248877.6735628,0.00732421875,-0.00531005859375,0.98089599609375,0.9809377126277269,-0.42724609375,-4.8828125,5.9814453125,10.546550039300806,0.013771386562439147,0.007803552917985795,1
1649248877.6790693,0.00732421875,-0.00531005859375,0.98089599609375,0.9817120943871442,3.41796875,-0.42724609375,2.197265625,10.689693850387894,0.01381290143035585,0.00788172904240843,1
1649248877.6839926,0.01025390625,-0.0076904296875,0.98162841796875,0.9817120943871442,-4.5166015625,-3.2958984375,3.84521484375,3.6299244875974748,0.01385763145663077,0.007952140628574527,1
1649248877.688851,0.01025390625,-0.0076904296875,0.98162841796875,0.9799452121020458,0.6103515625,3.35693359375,-4.08935546875,7.71098946009853,0.013907418215239886,0.008019545761412734,1
1649248877.6937175,0.01446533203125,-0.00897216796875,0.97979736328125,0.9799452121020458,-2.5634765625,-4.33349609375,9.765625,14.484891262956497,0.013967608792881947,0.008087420586612326,1
1649248877.6985729,0.01446533203125,-0.00897216796875,0.97979736328125,0.9787639713934431,-2.44140625,0.1220703125,4.69970703125,11.849154655870228,0.014037809196452145,0.008155375875877589,1
1649248877.703427,0.00860595703125,-0.00732421875,0.97869873046875,0.9787639713934431,8.97216796875,1.220703125,1.89208984375,8.217109385886388,0.014093855053943116,0.00822371463411907,1
1649248877.7082772,0.00860595703125,-0.00732421875,0.97869873046875,0.9819534694304701,7.50732421875,0.244140625,5.7373046875,6.234555234670041,0.014135582918243017,0.008292152935210306,1
1649248877.7134988,0.01556396484375,-0.00604248046875,0.9818115234375,0.9819534694304701,0.0,-4.150390625,-1.28173828125,8.124327264958508,0.014198170065355953,0.008365522173862265,1
1649248877.7183862,0.01556396484375,-0.00604248046875,0.9818115234375,0.9833162949622865,5.55419921875,0.1220703125,7.38525390625,7.2549725448804,0.01427499719284242,0.00843579705795671,1
1649248877.7232473,0.02691650390625,-0.00860595703125,0.98291015625,0.9833162949622865,-2.3193359375,0.18310546875,0.3662109375,10.28166148049301,0.014378142099303659,0.008505368450624294,1
1649248877.7281158,0.02691650390625,-0.00860595703125,0.98291015625,0.9782013416967138,7.99560546875,-3.5400390625,4.94384765625,5.991091054697845,0.014509287975670304,0.008575742882355061,1
1649248877.7329555,0.02508544921875,-0.01373291015625,0.977783203125,0.9782013416967138,-5.55419921875,-1.220703125,3.173828125,10.276043927514198,0.014635235413152259,0.008646330193347625,1
1649248877.7377968,0.02508544921875,-0.01373291015625,0.977783203125,0.9750616365904133,2.0751953125,-3.23486328125,4.33349609375,1.4064597927005509,0.014756586599105503,0.008717421853445309,1
1649248877.7426927,-0.0003662109375,-0.0201416015625,0.974853515625,0.9750616365904133,1.28173828125,2.0751953125,-11.3525390625,4.344228429998595,0.01481695629627211,0.008789644038550955,1
1649248877.7475479,-0.0003662109375,-0.0201416015625,0.974853515625,0.9853024030961154,7.9345703125,-1.40380859375,-4.08935546875,4.561739975843456,0.014815177062700968,0.008861627806726695,1
1649248877.752428,0.04632568359375,0.00640869140625,0.98419189453125,0.9853024030961154,-0.732421875,-4.0283203125,-3.35693359375,5.281921908281234,0.014927021773473825,0.008934010136338533,1
1649248877.7573278,0.04632568359375,0.00640869140625,0.98419189453125,0.9822512434860275,5.92041015625,3.72314453125,-0.42724609375,0.9727403229070574,0.015154778731812257,0.009007957662342789,1
1649248877.7621841,0.01776123046875,-0.01373291015625,0.98199462890625,0.9822512434860275,-2.197265625,-0.8544921875,-1.953125,2.939842426462963,0.015310316513932776,0.009081895897876995,1
1649248877.767069,0.01776123046875,-0.01373291015625,0.98199462890625,0.9837365123352507,0.30517578125,5.18798828125,-1.0986328125,6.75342351138067,0.015397134433442261,0.009156945794036534,1
1649248877.771931,-0.025634765625,-0.0157470703125,0.9832763671875,0.9837365123352507,-2.3193359375,3.2958984375,-2.62451171875,4.661903431134841,0.015378028343548067,0.009231610877067867,1
1649248877.7767944,-0.025634765625,-0.0157470703125,0.9832763671875,0.9807933634760023,-2.13623046875,-2.01416015625,-2.01416015625,3.6722678116433896,0.015253371981089003,0.009306087839279154,1
1649248877.7820346,0.0399169921875,0.000732421875,0.97998046875,0.9807933634760023,-0.8544921875,4.94384765625,4.57763671875,5.780966983775451,0.015290333074517548,0.00938514689983752,1
1649248877.7869377,0.0399169921875,0.000732421875,0.97998046875,0.9763887556013254,4.94384765625,-2.9296875,0.1220703125,6.006926154939987,0.015488923323573545,0.009461711538840673,1
1649248877.7918353,0.0029296875,-0.0113525390625,0.976318359375,0.9763887556013254,1.708984375,-4.82177734375,2.62451171875,11.364346178600757,0.015593917662044987,0.009537878988708443,1
1649248877.7967136,0.0029296875,-0.0113525390625,0.976318359375,0.9714413662122826,-5.67626953125,0.48828125,-5.0048828125,5.261074692263171,0.01560813476680778,0.009613587208133748,1
1649248877.8015716,0.00787353515625,-0.00823974609375,0.97137451171875,0.9714413662122826,-4.638671875,1.8310546875,1.28173828125,1.925269811473084,0.015634511109965388,0.009689866923457458,1
1649248877.8064191,0.00787353515625,-0.00823974609375,0.97137451171875,0.9717805378780595,1.220703125,-1.28173828125,4.94384765625,7.326761440147767,0.01567268954386236,0.009765770559304734,1
1649248877.8112764,0.0087890625,0.0003662109375,0.97174072265625,0.9717805378780595,-3.173828125,-8.23974609375,5.9814453125,8.591226727506724,0.01571314128523227,0.009841965852353893,1
1649248877.8161376,0.0087890625,0.0003662109375,0.97174072265625,0.9862378919514527,2.25830078125,1.64794921875,7.4462890625,7.275482791598461,0.01575588899140712,0.00991849442749335,1
1649248877.8210034,-0.0205078125,-0.0018310546875,0.98602294921875,0.9862378919514527,6.28662109375,0.732421875,10.55908203125,11.576263123589168,0.0157274743396556,0.009994832672188276,1
1649248877.8258562,-0.0205078125,-0.0018310546875,0.98602294921875,0.9862378919514527,0.06103515625,4.57763671875,3.35693359375,6.059718349225407,0.01562766123970505,0.010071136599814536,1
1649248877.8308978,-0.0205078125,-0.0018310546875,0.98602294921875,0.9862378919514527,4.82177734375,-2.99072265625,15.869140625,4.093452792262504,0.015528165953583084,0.010146714088660864,1
1649248877.8360236,-0.0205078125,-0.0018310546875,0.98602294921875,0.9791374857423114,-5.126953125,2.685546875,6.34765625,4.6068404389926,0.015420739990076981,0.010227773832123446,1
1649248877.8414512,0.02215576171875,-0.00311279296875,0.9788818359375,0.9791374857423114,-5.0048828125,-4.0283203125,3.0517578125,7.77952866109588,0.015425263489305507,0.01031248387962531,1
1649248877.846345,0.02215576171875,-0.00311279296875,0.9788818359375,0.9791374857423114,-2.3193359375,-1.28173828125,4.150390625,7.114196651407913,0.015534116777416784,0.010388537016111882,1
1649248877.8511944,0.02215576171875,-0.00311279296875,0.9788818359375,0.9791374857423114,0.3662109375,5.9814453125,11.5966796875,12.246487746524641,0.01564154383231653,0.010464118019517948,1
1649248877.8560467,0.02215576171875,-0.00311279296875,0.9788818359375,0.9791374857423114,-5.4931640625,-5.31005859375,2.5634765625,9.873745343624591,0.0157491082281922,0.01054031753294236,1
1649248877.8609293,0.02215576171875,-0.00311279296875,0.9788818359375,0.9791374857423114,-1.77001953125,1.52587890625,11.3525390625,8.060801038716482,0.015857264246733394,0.010617462689376432,1
1649248877.865788,0.02215576171875,-0.00311279296875,0.9788818359375,0.980005186992294,0.8544921875,0.54931640625,4.33349609375,6.975386483071103,0.015964527548931073,0.010694492549897124,1
1649248877.8707075,0.0062255859375,-0.00311279296875,0.97998046875,0.980005186992294,2.5634765625,-0.54931640625,12.63427734375,6.782870718656271,0.01603349991637515,0.010772254174699205,1
1649248877.876244,0.0062255859375,-0.00311279296875,0.97998046875,0.980005186992294,-0.9765625,-1.0986328125,3.23486328125,10.678361800651855,0.016065529525803868,0.010854826272040359,1
1649248877.8815722,0.0062255859375,-0.00311279296875,0.97998046875,0.980005186992294,5.126953125,3.60107421875,13.5498046875,7.5117888782102105,0.016099266074888874,0.010941977041179666,1
1649248877.8872557,0.008056640625,-0.0069580078125,0.9818115234375,0.9818692330883699,0.18310546875,-1.3427734375,0.8544921875,7.3376849675950275,0.01613758590974612,0.011028469916710169,1
1649248877.8928118,0.008056640625,-0.0069580078125,0.9818115234375,0.9818692330883699,-0.91552734375,3.72314453125,11.5966796875,9.089936128482162,0.01618517695897026,0.01112393614577169,1
1649248877.898422,0.008056640625,-0.0069580078125,0.9818115234375,0.9818692330883699,-1.5869140625,2.5634765625,30.70068359375,36.719279589790645,0.016228834101639222,0.011211758302127731,1
1649248877.9034832,0.008056640625,-0.0069580078125,0.9818115234375,0.9818692330883699,-2.8076171875,4.82177734375,42.29736328125,49.60712818254213,0.01627335178636713,0.01130155516236252,1
1649248877.909101,0.008056640625,-0.0069580078125,0.9818115234375,0.9818692330883699,0.30517578125,-2.197265625,69.76318359375,80.09842871084415,0.016313493768393528,0.011382736676435343,1
1649248877.9145052,0.008056640625,-0.0069580078125,0.9818115234375,0.9926873303523547,-4.45556640625,-2.13623046875,72.69287109375,71.19360503057295,0.01636193575541256,0.011480970096945738,1
1649248877.9195158,-0.18182373046875,-0.03094482421875,0.97540283203125,0.9926873303523547,4.5166015625,-1.3427734375,45.654296875,40.694706974368934,0.015926841617329046,0.011561820908989218,1
1649248877.9253736,-0.18182373046875,-0.03094482421875,0.97540283203125,0.9943094653515416,5.126953125,-4.21142578125,41.6259765625,59.558648390190406,0.015019956364994869,0.011638997839153342,1
1649248877.9312499,0.140625,0.01556396484375,0.98419189453125,0.9943094653515416,-2.8076171875,-5.06591796875,70.3125,76.23010023938419,0.014882919451338239,0.011738463679481457,1
1649248877.9362035,-0.1878662109375,0.00457763671875,0.9708251953125,0.9888459070166068,-1.64794921875,3.47900390625,80.6884765625,88.20933729785783,0.014761974482098594,0.011814348117928537,1
1649248877.9416745,-0.1878662109375,0.00457763671875,0.9708251953125,0.9888459070166068,-0.3662109375,0.3662109375,50.10986328125,48.82637020772582,0.013832610275130719,0.011885076066967013,1
1649248877.9470773,-0.1171875,0.0223388671875,1.00048828125,1.0075756726231782,10.009765625,0.0,57.80029296875,59.58125529855945,0.012958680919837207,0.011961828766580283,1
1649248877.9520326,-0.1171875,0.0223388671875,1.00048828125,1.0075756726231782,-5.7373046875,-3.662109375,66.650390625,62.32556199670798,0.01235347957117483,0.012027189635558284,1
1649248877.9569278,-0.02581787109375,0.0260009765625,0.95855712890625,0.9592572035835907,16.357421875,-0.18310546875,68.54248046875,79.3954781150896,0.012002879273495637,0.012086903103633022,1
1649248877.961787,-0.02581787109375,0.0260009765625,0.95855712890625,0.9592572035835907,8.544921875,-2.9296875,69.39697265625,63.52414035373097,0.011877437151269987,0.012144917135093343,1
1649248877.966663,-0.1043701171875,0.0142822265625,1.0264892578125,1.0318804677683227,-8.9111328125,0.3662109375,88.68408203125,101.4841400977772,0.011561240462469868,0.01220184429365199,1
1649248877.9715528,-0.1043701171875,0.0142822265625,1.0264892578125,1.0318804677683227,-14.892578125,-2.01416015625,93.56689453125,84.99096745294642,0.011048137021134607,0.012257420303844852,1
1649248877.9763978,-0.14007568359375,-0.041015625,0.9202880859375,0.9317905557296148,0.8544921875,1.220703125,59.75341796875,62.4931450899325,0.010456182790221646,0.012309495541196256,1
1649248877.9812567,-0.14007568359375,-0.041015625,0.9202880859375,0.9317905557296148,1.220703125,6.7138671875,65.7958984375,62.503725179282775,0.009776494262041524,0.012358582999254573,1
1649248877.9861066,-0.14007568359375,-0.041015625,0.9202880859375,0.9317905557296148,-5.2490234375,-4.94384765625,43.51806640625,49.69614955303293,0.009096972717088647,0.012404361563782128,1
1649248877.9912298,-0.14007568359375,-0.041015625,0.9202880859375,0.9317905557296148,14.58740234375,1.46484375,27.16064453125,17.77349618755335,0.00841671644593589,0.012446887848782172,1
1649248877.9966714,-0.14007568359375,-0.041015625,0.9202880859375,0.9317905557296148,32.3486328125,-2.25830078125,-5.92041015625,28.365329611201464,0.007661751878913492,0.01249021683196407,1
1649248878.0020392,-0.14007568359375,-0.041015625,0.9202880859375,0.9317905557296148,-9.09423828125,3.41796875,72.265625,55.6687804782536,0.006908156574354507,0.012529409268211895,1
1649248878.007958,-0.11627197265625,0.00274658203125,0.96441650390625,0.9714040911716318,-2.3193359375,-0.244140625,-23.681640625,14.866790958634798,0.0061581770569318905,0.012567636583158431,1
1649248878.0133736,-0.11627197265625,0.00274658203125,0.96441650390625,0.9630387000848454,0.0,-6.34765625,11.16943359375,30.625358988156492,0.005519725527847186,0.012599698371530238,1
1649248878.0188403,0.08587646484375,0.0135498046875,0.9591064453125,0.9630387000848454,2.9296875,9.46044921875,12.02392578125,12.180910774545538,0.005437605534098111,0.012629299830619256,1
1649248878.0242636,-0.08221435546875,0.0208740234375,1.02667236328125,1.0301704065954904,-2.8076171875,-10.31494140625,-9.6435546875,14.358188086136854,0.0054475667493534274,0.012658915267057008,1
1649248878.0296488,-0.08221435546875,0.0208740234375,1.02667236328125,1.0301704065954904,-17.9443359375,9.1552734375,11.71875,17.065412223927044,0.005002143858291674,0.012687222612429223,1
1649248878.0350204,-0.0787353515625,-0.0245361328125,0.9678955078125,0.9714025897858624,23.3154296875,-13.18359375,-7.6904296875,24.45141795479666,0.004569330274534877,0.012712961485134719,1
1649248878.0404236,-0.0787353515625,-0.0245361328125,0.9678955078125,0.9714025897858624,-4.150390625,12.8173828125,-7.14111328125,23.0397003126936,0.004144013735640328,0.012736495572701874,1
1649248878.0458217,-0.0465087890625,0.00823974609375,0.95123291015625,0.9524048562665344,-16.05224609375,-6.40869140625,2.9296875,19.239245550319126,0.0038062164894654416,0.012757938219544237,1
1649248878.051181,-0.0465087890625,0.00823974609375,0.95123291015625,0.9524048562665344,-27.16064453125,-15.31982421875,24.84130859375,56.836152485968505,0.0035563579804147594,0.012777715146840138,1
1649248878.0570767,-0.0465087890625,0.00823974609375,0.95123291015625,0.9524048562665344,20.32470703125,16.4794921875,-47.9736328125,68.6459664520532,0.003307153696368914,0.012796103246680306,1
1649248878.062791,-0.0465087890625,0.00823974609375,0.95123291015625,1.0606231398585817,-14.2822265625,-2.13623046875,31.8603515625,31.370110951550597,0.0030212130150175653,0.012815556962050785,1
1649248878.0682151,0.0205078125,0.041015625,1.05963134765625,1.0606231398585817,3.662109375,-20.32470703125,43.27392578125,48.36892688441364,0.0029497254654415883,0.012831975852756937,1
1649248878.0736053,-0.4434814453125,-0.10894775390625,0.90325927734375,1.0121377018594033,20.99609375,2.0751953125,30.82275390625,37.71760311137141,0.001807287429983262,0.012844825321369302,1
1649248878.0789843,-0.4434814453125,-0.10894775390625,0.90325927734375,1.0121377018594033,5.0048828125,7.99560546875,-15.07568359375,24.823081337887757,-0.0005718381653423421,0.012848138992018466,1
1649248878.0843594,-0.0205078125,0.028564453125,0.92523193359375,0.9258999024179098,-14.2822265625,6.103515625,14.2822265625,25.30832892066064,-0.0018251489163958468,0.012841664338502042,1
1649248878.089783,-0.0205078125,0.028564453125,0.92523193359375,0.9258999024179098,-8.6669921875,-3.90625,52.18505859375,57.31217421893563,-0.0019350342699908651,0.01283159039572979,1
1649248878.0951371,-0.1651611328125,-0.002197265625,0.99371337890625,1.0073476595423307,4.39453125,6.89697265625,-4.57763671875,17.921796903298723,-0.0024387697558267973,0.012819723897042095,1
1649248878.1005058,-0.1651611328125,-0.002197265625,0.99371337890625,1.0073476595423307,-3.662109375,0.3662109375,-6.40869140625,27.16948975968121,-0.0033232273926842026,0.012804295804806446,1
1649248878.1068838,0.063720703125,0.0380859375,1.0169677734375,1.0196736334986918,7.2021484375,-5.67626953125,36.31591796875,24.22319186916,-0.003595985435822513,0.01278569166388736,1
1649248878.1129167,-0.13531494140625,-0.02215576171875,0.9898681640625,0.9993197653251833,-4.7607421875,39.6728515625,0.79345703125,24.096058196891363,-0.003836479656456504,0.012760722765738166,1
1649248878.1189742,-0.13531494140625,-0.02215576171875,0.9898681640625,0.9993197653251833,-5.06591796875,-4.7607421875,14.95361328125,37.067037825661515,-0.004619887993612792,0.012736243617869219,1
1649248878.1250246,-0.11737060546875,0.0380859375,0.96807861328125,0.9759111635573716,-19.59228515625,-0.42724609375,24.10888671875,32.6652150419518,-0.00541352456639288,0.012704730603943849,1
1649248878.1306713,-0.11737060546875,0.0380859375,0.96807861328125,0.9759111635573716,23.25439453125,2.86865234375,28.99169921875,47.405302932221176,-0.006109917791036423,0.01267054467148557,1
1649248878.1361282,-0.11737060546875,0.0380859375,0.96807861328125,0.9759111635573716,-28.80859375,-11.77978515625,8.4228515625,21.546101761651187,-0.0067547936996561475,0.012635203018102432,1
1649248878.1418443,-0.11737060546875,0.0380859375,0.96807861328125,0.9759111635573716,-9.46044921875,-2.25830078125,-2.9296875,23.538055874444044,-0.00739561202499317,0.012596573928378074,1
1649248878.1500127,-0.11737060546875,0.0380859375,0.96807861328125,0.9759111635573716,-16.78466796875,-20.56884765625,18.00537109375,17.9892257459038,-0.00823178199789254,0.012540907700942265,1
1649248878.1564167,-0.17193603515625,-0.0029296875,0.98382568359375,0.9987409869194357,-2.3193359375,-14.58740234375,7.9345703125,21.007623390036034,-0.009254179916752037,0.01247911302166298,1
1649248878.1632025,-0.16717529296875,0.06390380859375,0.92962646484375,0.9466977550780724,9.33837890625,-5.06591796875,5.9814453125,29.796473119833088,-0.010434636780701112,0.01241057565093564,1
1649248878.1688337,-0.16717529296875,0.06390380859375,0.92962646484375,0.9466977550780724,3.90625,-5.9814453125,28.62548828125,34.01246718475542,-0.0114389311420382,0.012344873654734452,1
1649248878.1742659,-0.164794921875,0.00970458984375,0.99078369140625,1.0044420682629824,-7.568359375,-1.708984375,-20.44677734375,13.35345443794144,-0.012355542588920798,0.012279174125020288,1
1649248878.180286,-0.164794921875,0.00970458984375,0.99078369140625,0.9801467788599916,0.79345703125,-8.48388671875,-54.19921875,48.50809121723804,-0.013264481407532003,0.012208519537854701,1
1649248878.186577,0.04376220703125,0.04852294921875,0.97796630859375,0.9801467788599916,1.15966796875,0.18310546875,-45.8984375,48.723948927415776,-0.013643254154885653,0.012124305841201369,1
1649248878.1926425,-0.03240966796875,0.0618896484375,0.98309326171875,0.9855724612621706,-14.09912109375,14.404296875,-34.72900390625,62.66875135178839,-0.013607818022137508,0.012039254743252025,1
1649248878.1979837,-0.03240966796875,0.0618896484375,0.98309326171875,0.9855724612621706,-18.9208984375,-7.01904296875,-46.81396484375,60.061136827669294,-0.013796551633276977,0.011959461799198197,1
1649248878.203156,-0.22503662109375,0.07708740234375,1.0089111328125,1.0365739830549487,-4.08935546875,-11.65771484375,-38.14697265625,35.935248428798076,-0.014465532018220983,0.011886022093893651,1
1649248878.2083614,-0.22503662109375,0.07708740234375,1.0089111328125,1.0365739830549487,-2.25830078125,6.77490234375,-42.236328125,29.38302407344482,-0.015637257951311767,0.011807652139051963,1
1649248878.2135246,-0.22503662109375,0.07708740234375,1.0089111328125,1.0365739830549487,-5.79833984375,-8.48388671875,-15.80810546875,27.41463872739339,-0.0167992190545192,0.011723910380882397,1
1649248878.2187557,-0.22503662109375,0.07708740234375,1.0089111328125,1.0365739830549487,14.22119140625,9.46044921875,-8.056640625,8.461903144490396,-0.017972822839510627,0.01163323936080493,1
1649248878.223963,-0.36346435546875,0.0069580078125,0.9935302734375,1.0579495053195243,5.18798828125,0.6103515625,-5.7373046875,14.708079671788678,-0.019508230427163653,0.01153545074894055,1
1649248878.2291424,-0.36346435546875,0.0069580078125,0.9935302734375,1.0416494823071507,6.8359375,-7.14111328125,-16.2353515625,7.682675282011505,-0.021387206681538373,0.011429743608634555,1
1649248878.234385,-0.216796875,0.04815673828125,1.0177001953125,1.0416494823071507,-21.240234375,22.76611328125,-12.63427734375,19.839899785938506,-0.022911354186362587,0.011313386462113544,1
1649248878.2395744,-0.216796875,0.04815673828125,1.0177001953125,1.0083970935996553,-22.52197265625,-7.4462890625,-3.7841796875,45.16147900041487,-0.02403309590590652,0.011191937414082878,1
1649248878.24527,-0.19537353515625,0.02581787109375,0.98895263671875,1.0083970935996553,-33.5693359375,-11.3525390625,-54.74853515625,57.91413034630402,-0.025191344459017273,0.011053610801047397,1
1649248878.2505147,-0.0062255859375,0.06207275390625,0.96185302734375,0.963873970448475,-1.28173828125,-20.8740234375,6.8359375,8.976319059917197,-0.025728903150593396,0.010917833315851787,1
1649248878.2557042,-0.0062255859375,0.06207275390625,0.96185302734375,0.963873970448475,6.77490234375,-4.5166015625,-1.28173828125,34.60574946993138,-0.025761165794392582,0.010784415692977025,1
1649248878.2609537,-0.3599853515625,-0.013916015625,1.0037841796875,1.0664735290767227,2.62451171875,0.42724609375,-13.18359375,18.41988028743168,-0.0267221597241587,0.010646691359614461,1
1649248878.2661197,-0.3599853515625,-0.013916015625,1.0037841796875,1.0664735290767227,2.13623046875,-22.8271484375,12.26806640625,34.63770660440645,-0.028586326421645936,0.010503485202038988,1
1649248878.2713418,-0.2420654296875,0.04302978515625,0.94390869140625,0.9754029179639798,36.1328125,7.01904296875,2.86865234375,47.27455559213506,-0.03015385599428555,0.010350546320624293,1
1649248878.2765117,-0.2420654296875,0.04302978515625,0.94390869140625,0.9754029179639798,15.68603515625,-5.67626953125,6.89697265625,22.11174915089108,-0.031409284616529476,0.010190903266889149,1
1649248878.2817242,-0.35302734375,0.0457763671875,0.99298095703125,1.0548625323968819,25.57373046875,-21.3623046875,59.75341796875,41.70220071819564,-0.03295756292209262,0.01002343728832269,1
1649248878.2881203,-0.35302734375,0.0457763671875,0.99298095703125,1.0548625323968819,-32.16552734375,32.3486328125,44.0673828125,56.59354653998569,-0.03504274783335859,0.00982261258669692,1
1649248878.294578,-0.35302734375,0.0457763671875,0.99298095703125,1.0548625323968819,29.60205078125,23.4375,58.77685546875,63.98475861114162,-0.03712919526878977,0.009609338787568488,1
1649248878.3008327,-0.2457275390625,0.05218505859375,0.95306396484375,0.9856146431936949,-44.61669921875,27.2216796875,29.72412109375,52.03639935739038,-0.039169296804175247,0.009349371520004014,1
1649248878.3071392,-0.2457275390625,0.05218505859375,0.95306396484375,0.9856146431936949,-23.62060546875,-26.79443359375,58.7158203125,48.48335618114403,-0.04066376735136146,0.00910660637547186,1
1649248878.313868,-0.17083740234375,0.04522705078125,1.0517578125,1.0665014769407097,20.69091796875,27.2216796875,14.7705078125,42.855764442086475,-0.041990789060946554,0.008843299553767222,1
1649248878.3199656,-0.27813720703125,0.03753662109375,0.9327392578125,0.9740491912233661,-1.64794921875,18.4326171875,21.91162109375,13.226756329363916,-0.043482231558300555,0.008559367917841936,1
1649248878.326072,-0.27813720703125,0.03753662109375,0.9327392578125,0.9740491912233661,20.20263671875,30.76171875,0.244140625,19.704148806685335,-0.04513700809911825,0.008295747957723257,1
1649248878.3319635,-0.02215576171875,0.06976318359375,1.04571533203125,1.0482739790759383,20.81298828125,-10.92529296875,16.7236328125,32.96802538034767,-0.04606935949414037,0.008012569885274715,1
1649248878.337375,-0.02215576171875,0.06976318359375,1.04571533203125,0.9782123609688278,12.39013671875,9.58251953125,22.76611328125,35.17966020834226,-0.04619476765219588,0.007751448774050878,1
1649248878.3427162,-0.18072509765625,0.0289306640625,0.9609375,0.9782123609688278,-7.50732421875,-5.79833984375,21.78955078125,32.082089342217756,-0.04674091971537564,0.0075012673742126095,1
1649248878.348036,-0.18072509765625,0.0289306640625,0.9609375,0.9782123609688278,8.60595703125,4.57763671875,10.43701171875,61.84849320621602,-0.0476977367507061,0.007251273000237117,1
1649248878.3535206,-0.18072509765625,0.0289306640625,0.9609375,0.9782123609688278,-34.97314453125,4.39453125,31.73828125,49.242965856710214,-0.0486661014292622,0.006993103718843039,1
1649248878.3591816,-0.33856201171875,0.031494140625,0.961669921875,1.0200123309606717,70.068359375,88.80615234375,-15.2587890625,29.106219130342613,-0.05015296993951779,0.0067101562649619275,1
1649248878.3645284,-0.33856201171875,0.031494140625,0.961669921875,1.0200123309606717,-5.18798828125,38.57421875,25.69580078125,67.39820774402239,-0.0519905487599317,0.006432959237374875,1
1649248878.370009,-0.33856201171875,0.031494140625,0.961669921875,1.0200123309606717,-5.7373046875,-11.5966796875,35.2783203125,29.462410249925398,-0.05384653162036557,0.006142862002030921,1
1649248878.375645,-0.33856201171875,0.031494140625,0.961669921875,1.0200123309606717,-62.255859375,1.953125,44.0673828125,52.94232516721618,-0.05563818106020335,0.005853168803510033,1
1649248878.3811255,-0.33856201171875,0.031494140625,0.961669921875,1.0200123309606717,21.728515625,3.72314453125,25.20751953125,49.09966306570796,-0.05760208585707005,0.0055247310348007,1
1649248878.386395,-0.33856201171875,0.031494140625,0.961669921875,1.0200123309606717,-34.1796875,-25.93994140625,11.65771484375,36.11450762649551,-0.059404793864814565,0.005213223494475911,1
1649248878.39177,-0.33856201171875,0.031494140625,0.961669921875,1.0200123309606717,-49.560546875,8.056640625,26.55029296875,37.12989841923481,-0.06118046084884554,0.004897004828257261,1
1649248878.3969824,-0.33856201171875,0.031494140625,0.961669921875,1.0200123309606717,21.728515625,31.92138671875,24.90234375,13.55873707019931,-0.0630098870024085,0.004561472396213611,1
1649248878.4021642,-0.33856201171875,0.031494140625,0.961669921875,1.0200123309606717,3.173828125,-41.93115234375,28.50341796875,29.430466291484166,-0.06476295253378339,0.004230670130921561,1
1649248878.4072878,-0.11590576171875,-0.02783203125,0.97467041015625,0.9819323683417597,7.99560546875,11.5966796875,17.63916015625,60.51274845290561,-0.06592742825159803,0.0038958041979084805,1
1649248878.412453,-0.11590576171875,-0.02783203125,0.97467041015625,0.9819323683417597,-22.64404296875,-21.8505859375,46.7529296875,52.050464908289854,-0.06652617601503152,0.003553688766642046,1
1649248878.4175637,-0.12579345703125,-0.03497314453125,0.95343017578125,0.9623285378500119,12.6953125,32.5927734375,18.37158203125,36.43328510136101,-0.06714513241604436,0.003211376067357925,1
1649248878.4228103,-0.12579345703125,-0.03497314453125,0.95343017578125,0.9623285378500119,2.62451171875,-5.06591796875,21.78955078125,32.214191258551494,-0.06779498817923013,0.0028628221078620935,1
1649248878.4285483,0.0296630859375,0.0040283203125,0.98822021484375,0.9886735148964511,-18.49365234375,-33.0810546875,18.1884765625,19.06584319518328,-0.0680536104919156,0.0024973303572153726,1
1649248878.4347496,0.0296630859375,0.0040283203125,0.98822021484375,0.9886735148964511,7.26318359375,-2.38037109375,18.24951171875,36.77848056488766,-0.06788133094960358,0.002102583675344506,1
1649248878.4401708,0.0296630859375,0.0040283203125,0.98822021484375,0.9886735148964511,-37.109375,-29.1748046875,15.68603515625,49.267962239699045,-0.06769886032270733,0.0016855771213349618,1
1649248878.445361,0.0296630859375,0.0040283203125,0.98822021484375,0.9886735148964511,13.671875,-36.80419921875,23.98681640625,28.051083177334213,-0.06754238014400471,0.001328861479530449,1
1649248878.4505227,0.0296630859375,0.0040283203125,0.98822021484375,0.9886735148964511,12.87841796875,0.3662109375,25.0244140625,48.896779432219816,-0.06738921684154775,0.0009805064728456558,1
1649248878.4556582,0.0296630859375,0.0040283203125,0.98822021484375,1.0174262085343178,-4.33349609375,-6.591796875,42.41943359375,43.840920115668645,-0.0672368809900945,0.0006348178738202186,1
1649248878.4608612,-0.23052978515625,0.0538330078125,0.989501953125,1.0174262085343178,18.798828125,10.07080078125,47.42431640625,48.867514934708275,-0.06775656686659204,0.0002855468395459356,1
1649248878.465998,-0.22540283203125,0.01409912109375,0.9071044921875,0.9347961176909467,-33.26416015625,0.30517578125,9.6435546875,31.0928446192214,-0.06893409002077533,-6.747991786897924e-05,1
1649248878.471147,-0.22540283203125,0.01409912109375,0.9071044921875,0.9347961176909467,-0.91552734375,-37.04833984375,51.45263671875,66.90227157473952,-0.07009482509602094,-0.0004254517694095069,1
1649248878.476286,-0.23858642578125,0.01629638671875,0.96258544921875,0.9918466624608976,26.0009765625,-3.41796875,48.40087890625,80.89613056070951,-0.07128635253320681,-0.0007885195547308408,1
1649248878.481948,-0.23858642578125,0.01629638671875,0.96258544921875,0.9918466624608976,3.90625,-20.32470703125,57.18994140625,54.41464749012889,-0.07261958652088651,-0.0011905966811801682,1
1649248878.4871697,-0.11773681640625,-0.013916015625,1.05413818359375,1.060784107883732,-1.0986328125,18.85986328125,72.08251953125,68.83805120035147,-0.07356206709664548,-0.0015772494524702082,1
1649248878.4924364,-0.11773681640625,-0.013916015625,1.05413818359375,1.060784107883732,-35.5224609375,-36.80419921875,64.51416015625,49.78052188798195,-0.07416875793569488,-0.0019578735466493583,1
1649248878.497796,-0.11773681640625,-0.013916015625,1.05413818359375,1.060784107883732,5.615234375,32.04345703125,36.4990234375,52.139387166914304,-0.07480172289797338,-0.002358313687888332,1
1649248878.5030453,-0.11773681640625,-0.013916015625,1.05413818359375,1.060784107883732,-2.74658203125,-22.76611328125,26.55029296875,79.76118028682149,-0.07542441400437383,-0.0027555746392767828,1
1649248878.508313,0.00146484375,-0.0047607421875,0.93585205078125,0.9358653062192546,-36.68212890625,-34.1796875,35.2783203125,29.417995580008316,-0.07572955072828336,-0.003152261972096417,1
1649248878.513573,0.00146484375,-0.0047607421875,0.93585205078125,0.9358653062192546,-4.8828125,-3.60107421875,-4.45556640625,32.75018178365212,-0.07572184147284133,-0.003550795081695486,1
1649248878.5188682,0.1160888671875,-0.02252197265625,0.97979736328125,0.9869076640851948,6.591796875,-47.66845703125,13.427734375,35.95177947257471,-0.07541046162805287,-0.0039511189226595494,1
1649248878.524171,0.1160888671875,-0.02252197265625,0.97979736328125,0.9627869416719642,3.11279296875,13.3056640625,5.55419921875,36.27809751024732,-0.07479302654246567,-0.0043505581876851565,1
1649248878.5294967,0.0450439453125,-0.010986328125,0.961669921875,0.9627869416719642,-3.47900390625,7.01904296875,-6.7138671875,17.907760609657352,-0.07437072705215542,-0.004741488974149102,1
1649248878.5352092,-0.11297607421875,0.05950927734375,0.97283935546875,0.9811836520166389,14.0380859375,-0.30517578125,17.9443359375,32.37436099139818,-0.07455923046654789,-0.005154744978144384,1
1649248878.54057,-0.11297607421875,0.05950927734375,0.97283935546875,0.9811836520166389,11.77978515625,-8.36181640625,-5.79833984375,34.365936731747695,-0.07519189372396795,-0.005574046297861176,1
1649248878.5458138,-0.20654296875,0.08477783203125,0.9744873046875,0.9997363581170241,18.5546875,24.0478515625,-10.92529296875,37.48239461573709,-0.07603161788574653,-0.005971474993652869,1
1649248878.5511148,-0.20654296875,0.08477783203125,0.9744873046875,0.9997363581170241,-15.07568359375,15.44189453125,19.59228515625,59.30079792701683,-0.07712625567364739,-0.006377328547824404,1
1649248878.5563505,-0.29205322265625,0.1087646484375,0.9891357421875,1.0370700796409327,10.3759765625,-26.18408203125,7.50732421875,59.3814356980162,-0.0784322119798162,-0.006784777632497558,1
1649248878.561765,-0.29205322265625,0.1087646484375,0.9891357421875,1.0370700796409327,13.36669921875,-5.55419921875,23.86474609375,53.0673569814173,-0.07996033202653052,-0.007199158990019961,1
1649248878.5672185,-0.34808349609375,0.09228515625,0.9774169921875,1.041644203619352,23.86474609375,39.24560546875,43.3349609375,37.24169980772713,-0.08174530493124621,-0.007650062948588457,1
1649248878.572492,-0.34808349609375,0.09228515625,0.9774169921875,1.041644203619352,-6.4697265625,11.16943359375,87.34130859375,76.33168012135042,-0.08359871105494676,-0.008090258498198076,1
1649248878.5777783,-0.28802490234375,0.028564453125,0.990234375,1.0316677710310125,14.5263671875,39.0625,35.2783203125,37.73024329080506,-0.0852662892502849,-0.00853294341346797,1
1649248878.5830195,-0.28802490234375,0.028564453125,0.990234375,1.0316677710310125,3.96728515625,-33.447265625,27.587890625,36.42224046612984,-0.0867898813667125,-0.008988014178185944,1
1649248878.5896177,-0.28802490234375,0.028564453125,0.990234375,1.0316677710310125,33.02001953125,-76.59912109375,8.1787109375,20.634667558342233,-0.08854166551464004,-0.009521202492736261,1
1649248878.5951183,0.12725830078125,0.02105712890625,0.930908203125,0.9398021921877613,21.91162109375,-1.0986328125,-6.16455078125,33.982991595995365,-0.0890166198805673,-0.010045816600764697,1
1649248878.6013846,0.12725830078125,0.02105712890625,0.930908203125,0.9398021921877613,-6.4697265625,-44.12841796875,-10.498046875,13.226897152645698,-0.08832682308275253,-0.010526456913885906,1
1649248878.607577,0.19720458984375,0.0230712890625,1.03912353515625,1.0579223298286455,18.49365234375,22.0947265625,17.822265625,38.466193646448666,-0.08724241890013218,-0.01111323594423661,1
1649248878.61312,0.19720458984375,0.0230712890625,1.03912353515625,0.945055467561514,-7.9345703125,40.4052734375,3.23486328125,10.759859287908897,-0.08609303549746983,-0.011618368442763633,1
1649248878.619282,0.10345458984375,0.02069091796875,0.93914794921875,0.945055467561514,11.23046875,7.50732421875,-35.400390625,40.26109493353783,-0.08524079946801066,-0.012104024218764753,1
1649248878.6247852,0.17138671875,0.05877685546875,0.955078125,0.9721123139618187,0.91552734375,-39.4287109375,-38.75732421875,47.33251772041293,-0.08440421275736298,-0.012620404974923902,1
1649248878.6304626,0.17138671875,0.05877685546875,0.955078125,0.9721123139618187,17.15087890625,-29.9072265625,10.3759765625,50.62317085493775,-0.08347195129317697,-0.013076987840974273,1
1649248878.635918,-0.15618896484375,0.09649658203125,0.97760009765625,0.9946901698620457,-8.7890625,18.6767578125,42.05322265625,33.973617605024856,-0.08342866526800208,-0.01355212669882739,1
1649248878.6412916,-0.15618896484375,0.09649658203125,0.97760009765625,0.9946901698620457,-18.85986328125,-12.6953125,27.7099609375,57.411797605869396,-0.08427349173871335,-0.014005677375651405,1
1649248878.6472514,-0.4822998046875,0.08917236328125,1.01385498046875,1.126262284459554,-1.89208984375,12.14599609375,48.2177734375,65.18834711696617,-0.08599031444464345,-0.014463497125039122,1
1649248878.6531498,-0.40338134765625,0.02801513671875,0.983642578125,1.063510263712927,3.23486328125,-30.94482421875,65.00244140625,89.72427468212634,-0.0887923397749546,-0.01501645619290043,1
1649248878.658845,-0.40338134765625,0.02801513671875,0.983642578125,1.063510263712927,-42.41943359375,-69.4580078125,67.56591796875,68.58271490500356,-0.0910339542242582,-0.015516108967298,1
1649248878.6648383,-0.141357421875,0.01611328125,0.93182373046875,0.9426224181592998,18.06640625,15.13671875,56.94580078125,132.73705415227835,-0.09266675332764862,-0.016066733169869528,1
1649248878.6709437,-0.141357421875,0.01611328125,0.93182373046875,0.9426224181592998,-7.01904296875,-26.123046875,49.9267578125,55.24103138053341,-0.09351176948257489,-0.016623208583003715,1
1649248878.6764734,0.081298828125,-0.0076904296875,1.060546875,1.0636861925565935,-0.67138671875,38.26904296875,36.0107421875,71.25710071350004,-0.09368616082792869,-0.0171667082426269,1
1649248878.68185,0.081298828125,-0.0076904296875,1.060546875,0.9460210981753332,6.53076171875,-41.32080078125,1.708984375,36.474570564137025,-0.09323742149717873,-0.017682582611104787,1
1649248878.6871414,0.2003173828125,-0.0809326171875,0.9210205078125,0.9460210981753332,-4.0283203125,-10.8642578125,-2.44140625,64.31999328600791,-0.09249005791934906,-0.018175473105781704,1
1649248878.6924253,0.48321533203125,-0.0845947265625,0.9979248046875,1.111983471407215,-9.46044921875,-4.33349609375,4.82177734375,35.389918389750406,-0.09068389578169445,-0.0186594906993726,1
1649248878.6981926,0.48321533203125,-0.0845947265625,0.9979248046875,1.111983471407215,-30.94482421875,-10.498046875,-19.47021484375,44.879561689160845,-0.08805221056536539,-0.019146206597562845,1
1649248878.7037997,0.54766845703125,-0.1343994140625,0.9393310546875,1.0956033824462503,36.19384765625,31.73828125,-51.94091796875,55.9403439550051,-0.08507665262004593,-0.019645928263458828,1
1649248878.7087991,0.54766845703125,-0.1343994140625,0.9393310546875,1.0956033824462503,-0.91552734375,-25.390625,-15.5029296875,16.846034834539854,-0.08212998159433482,-0.020095746888231368,1
1649248878.7137094,0.54766845703125,-0.1343994140625,0.9393310546875,1.0956033824462503,20.69091796875,-37.4755859375,-5.7373046875,25.334001639506358,-0.07944263119861716,-0.020492156631527484,1
1649248878.7189915,0.54766845703125,-0.1343994140625,0.9393310546875,1.0956033824462503,23.74267578125,-24.71923828125,-13.12255859375,30.57252134146598,-0.07658135578822112,-0.020899727664390456,1
1649248878.7239454,-0.16864013671875,-0.0234375,0.97723388671875,0.9919550803691685,-15.2587890625,39.55078125,-4.21142578125,56.6419403975761,-0.07563019162626006,-0.02128169869994513,1
1649248878.728816,-0.16864013671875,-0.0234375,0.97723388671875,0.9919550803691685,21.05712890625,6.40869140625,-1.8310546875,28.557931530495622,-0.07645431331184227,-0.021653306968887523,1
1649248878.7336817,-0.1365966796875,-0.091552734375,0.9708251953125,0.9846532973218252,-23.3154296875,-39.48974609375,0.6103515625,38.60564098881341,-0.0771972279981128,-0.02202727885062587,1
1649248878.738622,-0.1365966796875,-0.091552734375,0.9708251953125,0.9846532973218252,-8.544921875,-5.859375,15.19775390625,40.68793227439285,-0.07786537639185553,-0.022406515118629403,1
1649248878.7435,0.1600341796875,-0.1014404296875,1.021728515625,1.0391488146962886,5.67626953125,-41.19873046875,-3.5400390625,38.041406665399556,-0.07780767908116104,-0.022789898112925602,1
1649248878.7483552,0.1600341796875,-0.1014404296875,1.021728515625,1.0391488146962886,2.5634765625,-1.77001953125,-30.8837890625,30.580257896922607,-0.07702965799398953,-0.0231662761890378,1
1649248878.7532473,0.2786865234375,-0.11590576171875,0.95159912109375,0.9983191930498388,-5.37109375,-5.126953125,-41.93115234375,59.322184361958016,-0.07595898092404241,-0.023539637706935637,1
1649248878.7581072,0.2786865234375,-0.11590576171875,0.95159912109375,0.9983191930498388,-43.39599609375,43.76220703125,-41.93115234375,71.8994140625,-0.07460053242539288,-0.023906586460582156,1
1649248878.762964,0.2838134765625,-0.08551025390625,0.9964599609375,1.0396126907426477,-12.63427734375,17.27294921875,-45.34912109375,53.57948168897241,-0.07323475159500958,-0.024265538632972088,1
1649248878.7683725,0.2838134765625,-0.08551025390625,0.9964599609375,1.0396126907426477,-39.55078125,26.79443359375,-67.9931640625,59.9615351743453,-0.0718582815679838,-0.024617382762606183,1
1649248878.7734797,0.35467529296875,-0.101806640625,0.96221923828125,1.0305459805541748,-1.0986328125,-77.880859375,-70.4345703125,76.25900078633106,-0.07006587786599994,-0.025015800715919877,1
1649248878.7787318,0.35467529296875,-0.101806640625,0.96221923828125,1.0305459805541748,8.23974609375,-25.87890625,-57.4951171875,42.550741366731316,-0.06832307195873,-0.025355809005243646,1
1649248878.7841878,0.35467529296875,-0.101806640625,0.96221923828125,1.0305459805541748,12.6953125,11.474609375,-14.58740234375,41.710820248087664,-0.06635406489658635,-0.02572964422697245,1
1649248878.7892263,0.35467529296875,-0.101806640625,0.96221923828125,1.0305459805541748,-6.7138671875,-16.54052734375,-17.02880859375,40.32248691194161,-0.06449084386986215,-0.026073328986083846,1
1649248878.7947533,0.35467529296875,-0.101806640625,0.96221923828125,1.0305459805541748,8.544921875,-20.8740234375,0.3662109375,31.47154004514655,-0.06266144731489476,-0.02640125140986274,1
1649248878.799909,0.35467529296875,-0.101806640625,0.96221923828125,1.0305459805541748,21.728515625,-5.2490234375,25.93994140625,36.05493969069671,-0.06070757670386229,-0.026741065198870095,1
1649248878.8049223,0.35467529296875,-0.101806640625,0.96221923828125,1.0305459805541748,1.8310546875,22.216796875,32.470703125,57.74690283070667,-0.05891809302556794,-0.02704284571153849,1
1649248878.8099105,0.35467529296875,-0.101806640625,0.96221923828125,1.0305459805541748,-1.15966796875,-24.59716796875,33.3251953125,58.82281984925064,-0.05714670543966349,-0.027332682284930604,1
1649248878.8151715,0.35467529296875,-0.101806640625,0.96221923828125,1.0305459805541748,39.12353515625,10.8642578125,48.15673828125,48.31170698553858,-0.05537354206899181,-0.027613949101786155,1
1649248878.8202505,0.109130859375,-0.14227294921875,0.99664306640625,1.012644329645399,17.822265625,4.5166015625,28.4423828125,43.054019245131705,-0.05414035386638716,-0.02790512946626888,1
1649248878.8252501,0.109130859375,-0.14227294921875,0.99664306640625,1.012644329645399,-28.4423828125,35.09521484375,6.2255859375,97.86265495001521,-0.05359416670398787,-0.028174728791426677,1
1649248878.8302379,0.3255615234375,-0.20599365234375,1.0133056640625,1.0840719806221393,-1.8310546875,23.5595703125,4.94384765625,20.234420069346072,-0.05250616720877588,-0.028440289252808636,1
1649248878.8351505,0.3255615234375,-0.20599365234375,1.0133056640625,1.0840719806221393,-11.41357421875,7.87353515625,20.93505859375,24.855176349306657,-0.050892914878204465,-0.028696475561919253,1
1649248878.8401923,0.5244140625,-0.2373046875,1.062744140625,1.2086143851907425,22.5830078125,-20.5078125,-17.2119140625,53.187017144993476,-0.04881240894610528,-0.028940526710105524,1
1649248878.845229,0.5244140625,-0.2373046875,1.062744140625,1.2086143851907425,41.32080078125,25.390625,0.6103515625,19.51312177499521,-0.046112885014736094,-0.029184849966348816,1
1649248878.8501678,0.5614013671875,-0.26458740234375,0.97869873046875,1.1588913640113774,-14.892578125,-45.654296875,33.8134765625,38.70456739378303,-0.04343724553473294,-0.029405517179382022,1
1649248878.8554304,0.5614013671875,-0.26458740234375,0.97869873046875,1.1588913640113774,20.751953125,6.77490234375,28.99169921875,33.11757679301231,-0.04065051942598075,-0.02961421774883074,1
1649248878.8610113,0.36456298828125,-0.27337646484375,0.8734130859375,0.9851351595805967,-17.578125,-2.86865234375,71.47216796875,65.77690005927269,-0.03808575757284416,-0.0298323036810936,1
1649248878.8659904,0.36456298828125,-0.27337646484375,0.8734130859375,0.9851351595805967,4.57763671875,14.70947265625,93.6279296875,79.25832779267019,-0.03613165384012973,-0.030031211037759506,1
1649248878.8708994,0.36456298828125,-0.27337646484375,0.8734130859375,0.9851351595805967,7.080078125,6.591796875,80.62744140625,83.18590245622413,-0.03435399484442314,-0.030203059869758388,1
1649248878.876015,0.36456298828125,-0.27337646484375,0.8734130859375,0.9851351595805967,9.3994140625,22.0947265625,50.4150390625,73.10763397393931,-0.03249567539751297,-0.03037343926402411,1
1649248878.880938,0.38177490234375,-0.13604736328125,0.99224853515625,1.0718293318598275,-5.43212890625,-17.333984375,39.36767578125,69.5238655969634,-0.03063521516014589,-0.030530811029691456,1
1649248878.8858004,0.38177490234375,-0.13604736328125,0.99224853515625,1.0718293318598275,3.7841796875,6.103515625,33.935546875,47.21790300590422,-0.028777360428648535,-0.03067537256842862,1
1649248878.890645,0.721435546875,-0.1915283203125,0.96258544921875,1.2180817266604982,15.7470703125,-29.296875,32.16552734375,27.044911212468616,-0.026100809198396746,-0.030808515100330173,1
1649248878.895481,0.721435546875,-0.1915283203125,0.96258544921875,1.2180817266604982,-5.4931640625,-6.28662109375,14.34326171875,16.646828368250357,-0.02260965135792503,-0.030926374489863177,1
1649248878.900346,0.721435546875,-0.1915283203125,0.96258544921875,1.2180817266604982,-17.822265625,2.13623046875,15.625,19.412154443567434,-0.01910765728825936,-0.03102762661703807,1
1649248878.9052007,0.721435546875,-0.1915283203125,0.96258544921875,1.2180817266604982,4.57763671875,11.04736328125,13.85498046875,25.661273148610928,-0.015604459193127695,-0.031111905400404323,1
1649248878.910232,0.721435546875,-0.1915283203125,0.96258544921875,1.2180817266604982,0.18310546875,-29.96826171875,10.55908203125,13.246035171599752,-0.011987050682364497,-0.031181079814585018,1
1649248878.9151244,0.721435546875,-0.1915283203125,0.96258544921875,1.2180817266604982,-12.87841796875,-21.42333984375,13.85498046875,19.761539836193535,-0.008470264299830887,-0.031230941515373273,1
1649248878.9200287,0.721435546875,-0.1915283203125,0.96258544921875,1.2180817266604982,-6.04248046875,-0.8544921875,-15.7470703125,15.005465544915126,-0.004905144895019475,-0.031263990157815696,1
1649248878.9251833,0.721435546875,-0.1915283203125,0.96258544921875,1.2180817266604982,-2.0751953125,11.16943359375,3.173828125,30.275529358486104,-0.0014028068180778064,-0.03127930169851256,1
1649248878.9305432,0.53851318359375,-0.07562255859375,1.00250244140625,1.140493912871977,-13.12255859375,7.38525390625,36.376953125,51.45441054502797,0.002100702236930374,-0.0312773611851634,1
1649248878.93593,0.53851318359375,-0.07562255859375,1.00250244140625,1.140493912871977,0.30517578125,9.8876953125,-14.404296875,4.07840914850784,0.004884872956608888,-0.03125930309995166,1
1649248878.9409075,0.53851318359375,-0.07562255859375,1.00250244140625,1.140493912871977,-15.19775390625,-2.9296875,35.58349609375,29.85798421402424,0.007721427427895833,-0.031226102002177767,1
1649248878.9457963,0.53851318359375,-0.07562255859375,1.00250244140625,1.140493912871977,-13.7939453125,-7.99560546875,7.75146484375,16.29318605916886,0.01035191346454667,-0.031181960398683557,1
1649248878.9506652,0.39349365234375,-0.1014404296875,0.93878173828125,1.0229557993092242,8.60595703125,-2.13623046875,12.39013671875,36.483046693330806,0.012635986880923156,-0.03112562384614681,1
1649248878.9555058,0.39349365234375,-0.1014404296875,0.93878173828125,1.0229557993092242,-13.48876953125,-13.85498046875,-0.48828125,18.172288898139794,0.01454158148408169,-0.03105981665040826,1
1649248878.960404,0.39349365234375,-0.1014404296875,0.93878173828125,1.0229557993092242,17.4560546875,4.82177734375,-18.1884765625,14.420580953648884,0.016463312473206315,-0.030984106324234824,1
1649248878.9652662,0.39349365234375,-0.1014404296875,0.93878173828125,1.0229557993092242,2.25830078125,-3.7841796875,-23.681640625,23.623522989837596,0.018382885689788964,-0.030899111524070953,1
1649248878.9701436,0.39349365234375,-0.1014404296875,0.93878173828125,1.0229557993092242,-13.97705078125,4.69970703125,-6.103515625,12.786100451193127,0.020296454669733066,-0.030805062248516157,1
1649248878.9749918,0.39349365234375,-0.1014404296875,0.93878173828125,1.0229557993092242,9.765625,-15.7470703125,-52.978515625,53.55263704009838,0.022209179303899873,-0.030701754898184084,1
1649248878.9800737,0.39349365234375,-0.1014404296875,0.93878173828125,1.0229557993092242,7.50732421875,1.5869140625,-29.84619140625,55.08567406614767,0.024115524436638225,-0.030589541050545985,1
1649248878.985131,0.39349365234375,-0.1014404296875,0.93878173828125,1.0229557993092242,22.88818359375,5.31005859375,-67.19970703125,69.25430327689014,0.026174133257882204,-0.030457992889183473,1
1649248878.9905508,0.33013916015625,-0.0582275390625,0.97265625,1.0288063433115153,8.9111328125,-4.94384765625,-39.1845703125,46.37892808241368,0.02796488251624396,-0.030324016926967207,1
1649248878.9958954,0.33013916015625,-0.0582275390625,0.97265625,0.9739863539131215,1.953125,1.3427734375,-45.5322265625,59.12835693104211,0.029867413577449042,-0.030157378501512035,1
1649248879.0012887,0.12286376953125,-0.06976318359375,0.96368408203125,0.9739863539131215,8.85009765625,-17.15087890625,-42.29736328125,43.131347272072546,0.030999838818388525,-0.030005221399554152,1
1649248879.0065556,0.12286376953125,-0.06976318359375,0.96368408203125,0.9739863539131215,15.869140625,3.84521484375,-24.35302734375,21.816888324052545,0.03168292241025483,-0.029830973263380578,1
1649248879.0116124,0.12286376953125,-0.06976318359375,0.96368408203125,0.9739863539131215,7.14111328125,-14.404296875,-11.53564453125,31.356213789020423,0.03232285740523366,-0.029664286458388717,1
1649248879.0166452,-0.03204345703125,-0.060791015625,1.007080078125,1.0094219209406385,-2.86865234375,-0.54931640625,15.07568359375,8.617420542687922,0.03254844565526582,-0.029503163945658894,1
1649248879.0217724,-0.03204345703125,-0.060791015625,1.007080078125,1.0094219209406385,1.40380859375,-8.48388671875,-12.5732421875,11.703003794879,0.032384618738433346,-0.029337173994422826,1
1649248879.0275612,0.2706298828125,-0.03424072265625,0.96807861328125,1.005777889025046,7.38525390625,4.2724609375,7.4462890625,4.389017672936229,0.033061265137803275,-0.029151562386001077,1
1649248879.0328686,0.2706298828125,-0.03424072265625,0.96807861328125,1.005777889025046,6.4697265625,-1.52587890625,-10.986328125,31.43855667992759,0.03454239501297707,-0.02896656840144951,1
1649248879.038178,0.22760009765625,-0.0208740234375,0.98199462890625,1.008241528855228,-0.30517578125,2.5634765625,-21.728515625,32.437529863406276,0.035835216418490745,-0.028783950562109688,1
1649248879.043418,0.22760009765625,-0.0208740234375,0.98199462890625,1.008241528855228,-4.33349609375,-1.03759765625,-23.0712890625,15.318973107271578,0.03703613503603265,-0.028591699847922057,1
1649248879.0490024,0.1695556640625,-0.0098876953125,0.97393798828125,0.9886364826120855,2.38037109375,4.5166015625,-19.287109375,18.627925687816987,0.03808273600589018,-0.028393743552520872,1
1649248879.0539918,0.1695556640625,-0.0098876953125,0.97393798828125,0.9886364826120855,3.96728515625,0.244140625,-14.16015625,12.469558603555374,0.03900713952316437,-0.028183599726069226,1
1649248879.0589612,0.0853271484375,-0.0318603515625,0.99407958984375,0.9982434749128488,-6.591796875,-3.35693359375,-14.95361328125,7.283670718833747,0.039636825807974674,-0.02798931033532376,1
1649248879.0650299,0.0853271484375,-0.0318603515625,0.99407958984375,0.9982434749128488,0.0,-2.13623046875,-5.37109375,9.114696865282967,0.04010114762058947,-0.027772356639843707,1
1649248879.070452,0.0853271484375,-0.0318603515625,0.99407958984375,0.9982434749128488,-3.0517578125,5.06591796875,-6.40869140625,5.708010945184662,0.04060609555745032,-0.027533552480330934,1
1649248879.0753999,0.05859375,-0.00238037109375,0.97796630859375,0.9797229171812265,2.0751953125,-1.5869140625,-2.5634765625,8.025368774711106,0.04097429566900246,-0.027324841240502953,1
1649248879.080285,0.05859375,-0.00238037109375,0.97796630859375,0.9797229171812265,2.74658203125,2.38037109375,1.03759765625,5.0603997383237616,0.04126087293843739,-0.02712373847723007,1
1649248879.0851576,0.05859375,-0.00238037109375,0.97796630859375,0.9797229171812265,-2.62451171875,-1.3427734375,2.5634765625,5.370053277239777,0.04154641643981449,-0.026921967099321903,1
1649248879.090031,0.05859375,-0.00238037109375,0.97796630859375,0.9797229171812265,3.90625,1.03759765625,0.18310546875,4.337362794052702,0.04183187612215988,-0.026718864030229703,1
1649248879.094898,0.05859375,-0.00238037109375,0.97796630859375,0.9797229171812265,-1.77001953125,-0.06103515625,-10.986328125,9.434424259124164,0.042117126256925985,-0.026514520868696996,1
1649248879.0998192,0.05859375,-0.00238037109375,0.97796630859375,0.9797229171812265,-0.732421875,-5.859375,-15.13671875,15.519021160999902,0.04240504463086836,-0.0263068580547954,1
1649248879.104691,0.05859375,-0.00238037109375,0.97796630859375,0.9797229171812265,-2.25830078125,-4.33349609375,-8.97216796875,16.41845703125,0.04269093737821095,-0.02609925635594193,1
1649248879.109622,0.05859375,-0.00238037109375,0.97796630859375,0.9797229171812265,2.62451171875,-2.86865234375,-17.4560546875,14.835435646893888,0.042979707912309095,-0.025888148874366877,1
1649248879.1145048,0.05859375,-0.00238037109375,0.97796630859375,0.9797229171812265,0.8544921875,0.18310546875,-13.5498046875,12.319731220279738,0.04326529332320206,-0.025677970193916252,1
1649248879.1195018,0.05859375,-0.00238037109375,0.97796630859375,0.9797229171812265,-1.03759765625,2.01416015625,-11.41357421875,14.574755689166638,0.04355578214745037,-0.025462754815710864,1
1649248879.124394,0.05859375,-0.00238037109375,0.97796630859375,0.9797229171812265,-3.23486328125,-2.74658203125,-27.587890625,17.45786857517448,0.043845195294125006,-0.02524690421813173,1
1649248879.129253,0.05859375,-0.00238037109375,0.97796630859375,0.9797229171812265,-2.62451171875,-2.99072265625,-23.25439453125,31.15903011303696,0.04413027779082768,-0.025032885935331456,1
1649248879.1341274,0.05859375,-0.00238037109375,0.97796630859375,0.9797229171812265,-5.79833984375,0.79345703125,-38.02490234375,31.74755254458615,0.044415933050913736,-0.02481704643975699,1
1649248879.1389909,0.05859375,-0.00238037109375,0.97796630859375,0.9797229171812265,7.01904296875,3.72314453125,-41.8701171875,38.200255756246,0.04470077806035988,-0.024600432462854163,1
1649248879.1438546,0.05859375,-0.00238037109375,0.97796630859375,0.9934618005663394,-8.4228515625,-1.708984375,-31.92138671875,30.33367439923655,0.04498593040625565,-0.024382197793500135,1
1649248879.1491506,0.041015625,-0.00018310546875,0.99261474609375,0.9934618005663394,-9.8876953125,-6.8359375,-46.44775390625,44.0582942308171,0.04524576521362178,-0.024146825016091278,1
1649248879.1540797,0.03240966796875,-0.01611328125,0.944091796875,0.944785343523677,-2.01416015625,1.03759765625,-51.7578125,50.49330429973998,0.04542947269510478,-0.023919958783549675,1
1649248879.1589725,0.03240966796875,-0.01611328125,0.944091796875,0.944785343523677,-1.15966796875,5.43212890625,-55.908203125,49.01096443683637,0.04558813256153371,-0.023697172775580942,1
1649248879.1638494,0.03240966796875,-0.01611328125,0.944091796875,0.944785343523677,4.57763671875,2.0751953125,-56.57958984375,61.98585150969635,0.04574566427618265,-0.023475202441989182,1
1649248879.1687362,0.03240966796875,-0.01611328125,0.944091796875,0.944785343523677,0.8544921875,-4.638671875,-36.43798828125,28.978268373353348,0.04590452504635323,-0.023250583978200907,1
1649248879.1736083,0.03240966796875,-0.01611328125,0.944091796875,0.944785343523677,5.2490234375,0.54931640625,-29.47998046875,29.888162570311614,0.046062497203820385,-0.023026449794927288,1
1649248879.178476,0.03240966796875,-0.01611328125,0.944091796875,0.944785343523677,8.9111328125,0.06103515625,-29.47998046875,31.268174131871387,0.046220191186876036,-0.022801942331391344,1
1649248879.1833625,0.03240966796875,-0.01611328125,0.944091796875,0.944785343523677,5.37109375,-1.40380859375,-43.51806640625,47.98065988262977,0.046378719693166204,-0.022575473380211965,1
1649248879.188228,0.03240966796875,-0.01611328125,0.944091796875,0.944785343523677,-6.77490234375,-3.7841796875,-16.29638671875,31.009523670809287,0.046536290043150075,-0.022349604811965247,1
1649248879.1931052,0.03240966796875,-0.01611328125,0.944091796875,0.944785343523677,1.40380859375,0.732421875,-10.43701171875,15.527900349939426,0.04669445537729189,-0.022122112941083807,1
1649248879.1982267,0.03240966796875,-0.01611328125,0.944091796875,0.944785343523677,-0.732421875,-1.0986328125,-9.94873046875,11.413737413188247,0.04685204118140973,-0.021894686978299736,1
1649248879.2033708,-0.01336669921875,-0.025634765625,1.0220947265625,1.0225035158489797,-1.3427734375,-0.42724609375,-11.71875,15.023701737371816,0.04690261699579423,-0.02164570973198979,1
1649248879.208261,-0.01336669921875,-0.025634765625,1.0220947265625,1.0225035158489797,5.615234375,2.99072265625,-15.80810546875,15.758303398690252,0.04683615483372705,-0.02141266485893044,1
1649248879.2131379,0.0377197265625,-0.00823974609375,0.97723388671875,0.9779962886121163,0.06103515625,0.0,-11.962890625,8.620662165055347,0.046895448678696994,-0.021184420141219434,1
1649248879.2180624,0.0377197265625,-0.00823974609375,0.97723388671875,0.9779962886121163,6.28662109375,2.0751953125,-18.61572265625,15.288667037285913,0.04708161450253101,-0.020952508102307303,1
1649248879.2229364,0.044677734375,-0.0186767578125,0.9818115234375,0.9830049790239795,2.9296875,-5.9814453125,-11.8408203125,13.09143634102228,0.04728237745439401,-0.02072258847421077,1
1649248879.2278113,0.044677734375,-0.0186767578125,0.9818115234375,0.9830049790239795,1.15966796875,-2.0751953125,-11.1083984375,10.341812436359573,0.04750018959020963,-0.020491547289436366,1
1649248879.23268,0.044677734375,-0.0186767578125,0.9818115234375,0.9830049790239795,3.5400390625,-4.0283203125,-5.79833984375,14.371802969642355,0.047717873902001884,-0.02025958075273244,1
1649248879.2375708,0.044677734375,-0.0186767578125,0.9818115234375,0.9830049790239795,1.953125,-0.3662109375,-11.16943359375,13.095277328453083,0.04793554756179219,-0.02002656501667556,1
1649248879.2428536,0.044677734375,-0.0186767578125,0.9818115234375,0.9830049790239795,4.45556640625,-2.25830078125,-15.625,10.120983516279791,0.04815476576186484,-0.019790824039364323,1
1649248879.2482312,0.044677734375,-0.0186767578125,0.9818115234375,0.9830049790239795,3.96728515625,-0.67138671875,-8.7890625,12.731939445633243,0.048404480643512215,-0.019520977312293367,1
1649248879.2532,0.0128173828125,-0.0135498046875,0.9730224609375,0.973201208382984,2.25830078125,5.67626953125,-9.21630859375,11.283913200265667,0.04855229297390906,-0.019271714290367285,1
1649248879.2580867,0.0128173828125,-0.0135498046875,0.9730224609375,0.973201208382984,-5.4931640625,1.220703125,-16.4794921875,17.82905762729642,0.04861504898144631,-0.01903384067243268,1
1649248879.2629511,0.0318603515625,-0.00347900390625,0.98089599609375,0.9814194519279795,1.89208984375,0.48828125,-13.48876953125,10.283291808177959,0.04872376863932004,-0.018796974522042445,1
1649248879.2678208,0.0318603515625,-0.00347900390625,0.98089599609375,0.9814194519279795,2.62451171875,1.28173828125,-6.65283203125,17.486013034046913,0.04887885061179986,-0.01855943152627594,1
1649248879.2726934,0.00531005859375,0.0010986328125,0.97705078125,0.9770658283133031,4.2724609375,-0.67138671875,-8.36181640625,15.04463984128397,0.048969461320666596,-0.018320905643232292,1
1649248879.2775857,0.00531005859375,0.0010986328125,0.97705078125,0.9770658283133031,-0.91552734375,-4.7607421875,-4.33349609375,9.247581526620444,0.04899529565591365,-0.018082598068141872,1
1649248879.2824829,-0.017578125,0.00677490234375,0.97833251953125,0.978513877547297,1.3427734375,0.732421875,-2.685546875,4.445102894539337,0.04896524304058403,-0.017842619150279335,1
1649248879.2881792,-0.017578125,0.00677490234375,0.97833251953125,0.978513877547297,0.8544921875,4.57763671875,-2.44140625,3.662617965985717,0.04887946683447808,-0.017603892096039478,1
1649248879.2939281,-0.01025390625,0.00604248046875,0.98052978515625,0.9806020159790417,2.197265625,1.708984375,7.32421875,4.248853584950467,0.048795343085657805,-0.01730866494923216,1
1649248879.299539,-0.01025390625,0.00604248046875,0.98052978515625,0.9806020159790417,-3.47900390625,-0.42724609375,1.40380859375,6.067091019516863,0.048736080585513264,-0.017026823284773306,1
1649248879.3056,-0.01025390625,0.00604248046875,0.98052978515625,0.9806020159790417,-1.64794921875,-3.0517578125,1.0986328125,5.952101371647899,0.04868089099181816,-0.01676465962980716,1
1649248879.3113647,-0.01025390625,0.00604248046875,0.98052978515625,0.9830068208146394,4.638671875,3.23486328125,15.7470703125,10.51258588522211,0.048615621810313314,-0.01645499892104698,1
1649248879.3167758,0.01318359375,-0.0040283203125,0.98291015625,0.9830068208146394,-4.5166015625,-3.23486328125,-5.615234375,2.9468036388118435,0.048623560869600624,-0.01619154017509663,1
1649248879.3218067,0.0091552734375,-0.00787353515625,0.9781494140625,0.9782239456373905,3.0517578125,0.79345703125,3.41796875,9.244559737327396,0.04868413614167366,-0.015927675397541703,1
1649248879.3267899,0.0091552734375,-0.00787353515625,0.9781494140625,0.9782239456373905,-2.3193359375,-2.197265625,-0.91552734375,3.0499262081662564,0.04872973893361632,-0.015685064146894044,1
1649248879.3326366,0.00897216796875,-0.0029296875,0.97906494140625,0.9791104341991923,-1.15966796875,2.74658203125,6.2255859375,7.445538592433172,0.04877536326966947,-0.015439656896630596,1
1649248879.337816,0.00897216796875,-0.0029296875,0.97906494140625,0.9791104341991923,2.86865234375,3.5400390625,0.244140625,6.570286445702094,0.04882885225379141,-0.01514871549024182,1
1649248879.3427622,0.00897216796875,-0.0029296875,0.97906494140625,0.9791104341991923,-3.11279296875,-0.244140625,3.2958984375,6.424946832251336,0.0488737419291283,-0.01490430200245832,1
1649248879.347696,0.00897216796875,-0.0029296875,0.97906494140625,0.9791104341991923,-0.54931640625,-3.60107421875,4.08935546875,5.465288429082918,0.04891812035202747,-0.014662451390904548,1
1649248879.3526413,0.00897216796875,-0.0029296875,0.97906494140625,0.9791104341991923,-3.662109375,-2.62451171875,7.26318359375,3.6386373439425976,0.04896269985329127,-0.01441928395560672,1
1649248879.3575084,0.00897216796875,-0.0029296875,0.97906494140625,0.9791104341991923,-1.40380859375,4.08935546875,8.36181640625,9.469108310378534,0.04900637664104579,-0.014180825727035141,1
1649248879.3623595,0.00897216796875,-0.0029296875,0.97906494140625,0.9791104341991923,2.86865234375,-2.13623046875,5.37109375,5.870807937700707,0.04904989085480338,-0.01394304365480092,1
1649248879.3677967,0.00897216796875,-0.0029296875,0.97906494140625,0.9791104341991923,-3.0517578125,-4.8828125,9.033203125,5.011205633570804,0.04909370668610791,-0.013703400163481445,1
1649248879.3734577,0.01226806640625,-0.00897216796875,0.976318359375,0.9764366564729631,-3.173828125,0.91552734375,-0.9765625,13.540866412456662,0.049156594795931596,-0.01341250056036381,1
1649248879.378416,0.01226806640625,-0.00897216796875,0.976318359375,0.9764366564729631,-1.52587890625,-4.7607421875,7.080078125,5.1127646165560225,0.04922093166533159,-0.01315454213960533,1
1649248879.3833177,0.0465087890625,-0.01025390625,0.97760009765625,0.9787595010986884,0.0,0.54931640625,3.173828125,6.643866701437893,0.04936524263030151,-0.012912489960531895,1
1649248879.3881643,0.0465087890625,-0.01025390625,0.97760009765625,0.9787595010986884,-0.67138671875,6.04248046875,1.8310546875,5.890762185844268,0.04959060651162872,-0.012672738779172533,1
1649248879.3930519,0.0179443359375,-0.005126953125,0.98309326171875,0.9832703829961494,-1.15966796875,4.0283203125,-4.33349609375,5.819182830348158,0.049748147175705526,-0.012429928314599019,1
1649248879.3979106,0.0179443359375,-0.005126953125,0.98309326171875,0.9832703829961494,-0.48828125,4.2724609375,-0.42724609375,4.463919556451794,0.049835295394586865,-0.012188110515369771,1
1649248879.4031315,0.0179443359375,-0.005126953125,0.98309326171875,0.9832703829961494,3.60107421875,-3.41796875,0.1220703125,5.111307157969809,0.049924176310014445,-0.011941048902207839,1
1649248879.4085007,0.0179443359375,-0.005126953125,0.98309326171875,0.9832703829961494,1.953125,0.18310546875,-1.64794921875,6.108396485935939,0.05001999228989007,-0.01167421683662992,1
1649248879.4138622,0.0172119140625,-0.00860595703125,0.97943115234375,0.9796201787751846,7.32421875,13.5498046875,-0.9765625,10.179522333686222,0.05011429289152147,-0.011405623817279517,1
1649248879.419214,0.0172119140625,-0.00860595703125,0.97943115234375,0.9780313069896034,-0.67138671875,-3.35693359375,-1.708984375,7.620111540005556,0.05020634164247895,-0.011137368088411013,1
1649248879.4254375,0.019775390625,-0.00970458984375,0.977783203125,0.9780313069896034,-2.3193359375,1.220703125,-0.30517578125,4.726580785290366,0.05031389599753311,-0.010845068083839001,1
1649248879.4310672,0.01446533203125,-0.00787353515625,0.9818115234375,0.9819496453185854,-6.8359375,3.11279296875,-6.34765625,15.196160535512156,0.050416186211805325,-0.010544148567732631,1
1649248879.437474,0.01446533203125,-0.00787353515625,0.9818115234375,0.9819496453185854,0.0,-6.65283203125,-4.2724609375,7.118122881025622,0.05049630882422207,-0.010264674418424786,1
1649248879.443373,0.0179443359375,-0.008056640625,0.98126220703125,0.981459335682451,2.685546875,1.52587890625,1.03759765625,13.796780725245597,0.050603927549673244,-0.009928963525247414,1
1649248879.4489117,0.0179443359375,-0.008056640625,0.98126220703125,0.9809301248281064,-2.50244140625,-5.92041015625,1.3427734375,2.920772977052099,0.050706032576272264,-0.009640731734184366,1
1649248879.4543443,0.0062255859375,-0.00531005859375,0.98089599609375,0.9809301248281064,-2.197265625,-3.47900390625,-7.38525390625,10.485619574865614,0.05077172862365842,-0.009364905943645623,1
1649248879.4598632,-0.00274658203125,0.0,0.982177734375,0.9821815746667529,7.99560546875,3.35693359375,-4.82177734375,11.118119565986113,0.05078116518416209,-0.009089457026160225,1
1649248879.4652674,-0.00274658203125,0.0,0.982177734375,0.9821815746667529,-2.62451171875,-0.3662109375,-3.662109375,6.64274518443101,0.05076607121009147,-0.008810428157617609,1
1649248879.470678,-0.00091552734375,0.00054931640625,0.98309326171875,0.9830938414900391,-1.0986328125,-4.7607421875,-2.3193359375,6.456469502738228,0.05075618449336616,-0.008536345195949093,1
1649248879.4761364,-0.00091552734375,0.00054931640625,0.98309326171875,0.9830938414900391,-0.3662109375,0.3662109375,2.74658203125,12.218927308964425,0.0507511765244999,-0.008258720662315753,1
1649248879.4816642,0.00787353515625,-0.00347900390625,0.98089599609375,0.9809337649284923,4.45556640625,5.06591796875,0.732421875,6.770501984533632,0.05077018908195896,-0.007981311973957536,1
1649248879.488097,0.00787353515625,-0.00347900390625,0.98089599609375,0.9809337649284923,-0.244140625,5.7373046875,5.126953125,9.75245541440878,0.05081536946090637,-0.007689849883583342,1
1649248879.4937954,0.00787353515625,-0.00347900390625,0.98089599609375,0.9809337649284923,-2.01416015625,-5.92041015625,-5.615234375,9.672098530048977,0.050865516903286334,-0.007366041309105545,1
1649248879.4993398,0.0120849609375,-0.0091552734375,0.9803466796875,0.9804639094259829,-1.953125,2.01416015625,4.2724609375,2.6862403667804426,0.050921174421091564,-0.007082192538230667,1
1649248879.5049589,0.0120849609375,-0.0091552734375,0.9803466796875,0.9804639094259829,-3.84521484375,-9.21630859375,-5.31005859375,2.6841593539179716,0.0509885905921692,-0.0067979398133709195,1
1649248879.5104592,0.0120849609375,-0.0091552734375,0.9803466796875,0.9804639094259829,2.74658203125,0.91552734375,0.9765625,1.9048445476473677,0.05105660895060282,-0.00651076689676709,1
1649248879.5159562,0.0120849609375,-0.0091552734375,0.9803466796875,0.9804639094259829,-4.2724609375,1.28173828125,-1.40380859375,3.911967861074723,0.05112217245914508,-0.0062335959798546755,1
1649248879.5214012,0.0120849609375,-0.0091552734375,0.9803466796875,0.9804639094259829,-1.40380859375,-2.99072265625,3.72314453125,9.257647034015436,0.05118872424645815,-0.005951883317622035,1
1649248879.5268426,0.0120849609375,-0.0091552734375,0.9803466796875,0.9804639094259829,-0.67138671875,0.6103515625,-0.3662109375,4.215404455525392,0.05125410911568906,-0.005674753283951704,1
1649248879.5328286,0.0120849609375,-0.0091552734375,0.9803466796875,0.9804639094259829,-3.47900390625,-4.82177734375,-2.50244140625,3.7669126279808283,0.05132061768381391,-0.0053924975844705835,1
1649248879.5389338,0.0106201171875,-0.0040283203125,0.9781494140625,0.9782153599716314,0.8544921875,2.685546875,1.5869140625,4.78143352580173,0.05138922059268225,-0.005082162000669782,1
1649248879.5445287,0.0106201171875,-0.0040283203125,0.9781494140625,0.9782153599716314,-3.23486328125,-0.9765625,0.67138671875,4.81404517497827,0.05145334939879831,-0.004771658306829967,1
1649248879.55022,0.0106201171875,-0.0040283203125,0.9781494140625,0.9782153599716314,-1.15966796875,2.74658203125,6.34765625,4.627817404118009,0.05151503732486162,-0.004472607641242955,1
1649248879.5555387,0.0106201171875,-0.0040283203125,0.9781494140625,0.9782153599716314,-2.3193359375,3.11279296875,10.25390625,10.285284079957295,0.0515722790005384,-0.004194790992739614,1
1649248879.5608516,-0.006591796875,-0.0003662109375,0.983642578125,0.9836647332281913,2.5634765625,0.30517578125,11.65771484375,4.671881404604397,0.051582936983322725,-0.003921845448737822,1
1649248879.566427,-0.006591796875,-0.0003662109375,0.983642578125,0.9809241775927788,1.953125,4.21142578125,7.26318359375,14.569387125282926,0.05154791843960993,-0.0036479070646180988,1
1649248879.5725257,-0.00732421875,-0.00128173828125,0.98089599609375,0.9809241775927788,-3.11279296875,-0.9765625,6.9580078125,13.559149191954942,0.051507102412870154,-0.0033456440749713755,1
1649248879.5782907,-0.0018310546875,-0.002197265625,0.98345947265625,0.9834636318109606,1.89208984375,5.18798828125,14.22119140625,9.445473908590525,0.05147898483846802,-0.0030293543442012376,1
1649248879.583653,-0.0018310546875,-0.002197265625,0.98345947265625,0.9834636318109606,3.173828125,0.79345703125,16.357421875,10.204742280097246,0.05146890647301916,-0.002746034987900765,1
1649248879.5889242,-0.0018310546875,-0.002197265625,0.98345947265625,0.9834636318109606,-1.3427734375,2.38037109375,4.45556640625,13.163657479323744,0.05145925855322275,-0.0024748681331520457,1
1649248879.5942016,-0.0018310546875,-0.002197265625,0.98345947265625,0.9834636318109606,1.64794921875,0.54931640625,12.5732421875,11.224828215815993,0.05144958356686402,-0.0022029915883110705,1
1649248879.5995069,0.00897216796875,-0.00439453125,0.97869873046875,0.9787497211872449,-1.28173828125,-0.54931640625,13.7939453125,10.021667847545796,0.05146843538386747,-0.0019312748308106783,1
1649248879.6048942,0.00897216796875,-0.00439453125,0.97869873046875,0.9787497211872449,0.244140625,0.3662109375,8.23974609375,14.671434787894054,0.05151732523518149,-0.0016506872102008746,1
1649248879.6106014,0.0128173828125,-0.00714111328125,0.9788818359375,0.9789917923708189,1.0986328125,0.18310546875,12.39013671875,13.366141808440386,0.051578899372543674,-0.0013593521037891642,1
1649248879.615856,0.0128173828125,-0.00714111328125,0.9788818359375,0.980044683567792,5.67626953125,2.99072265625,8.30078125,12.745391667372573,0.05164713155681966,-0.0010845948593702064,1
1649248879.621044,0.01007080078125,-0.00494384765625,0.97998046875,0.980044683567792,-7.2021484375,2.50244140625,2.25830078125,9.311212655508633,0.05170666980848182,-0.0008157441394900733,1
1649248879.6264925,0.02545166015625,-0.01007080078125,0.98089599609375,0.9812778216111047,6.28662109375,-3.96728515625,4.2724609375,6.827758255456354,0.051802367699565366,-0.0005368896813196166,1
1649248879.631685,0.02545166015625,-0.01007080078125,0.98089599609375,0.9812778216111047,-4.638671875,-0.6103515625,-3.2958984375,8.477077907942709,0.05193596406024881,-0.00026462721393240903,1
1649248879.6368675,0.0347900390625,-0.0091552734375,0.9825439453125,0.9832023038622004,-3.47900390625,4.8828125,0.18310546875,3.102603766391317,0.05209201523393858,4.848721772619975e-06,1
1649248879.6420355,0.0347900390625,-0.0091552734375,0.9825439453125,0.9832023038622004,4.21142578125,5.18798828125,3.0517578125,4.342513038646425,0.05227185857074801,0.00027459758974132404,1
1649248879.647209,0.0208740234375,-0.0069580078125,0.9810791015625,0.9813258084091493,6.77490234375,8.60595703125,3.2958984375,4.987733815384364,0.0524159057677025,0.0005455080898218003,1
1649248879.6524186,0.0208740234375,-0.0069580078125,0.9810791015625,0.9813258084091493,2.5634765625,-2.9296875,2.0751953125,3.926700465446004,0.0525248220510548,0.0008192874615976066,1
1649248879.657653,0.0208740234375,-0.0069580078125,0.9810791015625,0.9813258084091493,-1.03759765625,-0.8544921875,-4.45556640625,5.595629094085167,0.05263234484300483,0.0010901215011362474,1
1649248879.6633446,0.0208740234375,-0.0069580078125,0.9810791015625,0.9813258084091493,-5.4931640625,8.97216796875,4.21142578125,10.076163049210797,0.052747387511772104,0.0013805103109498689,1
1649248879.66928,0.0208740234375,-0.0069580078125,0.9810791015625,0.9813258084091493,1.52587890625,-2.25830078125,4.45556640625,5.6631284798650485,0.05286413223075215,0.0016758435807987084,1
1649248879.6884782,0.0208740234375,-0.0069580078125,0.9810791015625,0.9791466111892216,2.685546875,-1.5869140625,5.615234375,7.511044952595293,0.052992169206845574,0.002000493995633336,1
1649248879.6946962,0.00732421875,-0.005859375,0.98089599609375,0.9787654786146582,-3.35693359375,-1.3427734375,-1.220703125,6.675750732352121,0.053263448367943056,0.0030227185231736136,1
1649248879.7010984,0.00933837890625,-0.006591796875,0.97869873046875,0.9787654786146582,-1.8310546875,-0.732421875,3.2958984375,3.1223524322335603,0.05331583799124928,0.0033578192547519276,1
1649248879.7071502,0.01007080078125,-0.00677490234375,0.9803466796875,0.9804218136620833,-0.3662109375,4.0283203125,-0.06103515625,9.86525260940223,0.05337712934851879,0.0036947400769944804,1
1649248879.7134814,0.01007080078125,-0.00677490234375,0.9803466796875,0.9804218136620833,0.18310546875,-4.57763671875,-2.8076171875,7.416211024943378,0.053435650530445855,0.004005083328698459,1
1649248879.7200358,0.00714111328125,-0.00732421875,0.97998046875,0.9800338559512438,0.79345703125,3.7841796875,1.46484375,6.170892758011411,0.05349373140052194,0.004365911968482307,1
1649248879.7253954,0.00933837890625,-0.00421142578125,0.98126220703125,0.9813156782481096,1.40380859375,0.54931640625,-4.08935546875,6.106871635944399,0.05354414265457308,0.004693343991307523,1
1649248879.7306244,0.00933837890625,-0.00421142578125,0.98126220703125,0.9813156782481096,-2.99072265625,1.77001953125,-8.056640625,5.882535302266593,0.053593420518154744,0.004976022081129098,1
1649248879.7358935,0.01446533203125,-0.0047607421875,0.9840087890625,0.98412662165455,-4.8828125,3.35693359375,-3.173828125,6.7099820079647525,0.05365606673149159,0.0052582795104916865,1
1649248879.7411005,0.01446533203125,-0.0047607421875,0.9840087890625,0.98412662165455,0.0,4.45556640625,-7.87353515625,6.249475457114357,0.05373165071796393,0.005538839672037233,1
1649248879.7463038,0.01446533203125,-0.0047607421875,0.9840087890625,0.98412662165455,-2.01416015625,9.6435546875,-0.244140625,2.1431945637304,0.053806976044143084,0.00581883262761594,1
1649248879.751778,0.01446533203125,-0.0047607421875,0.9840087890625,0.98412662165455,7.32421875,2.50244140625,-2.13623046875,17.417812472470285,0.05388297388708452,0.006101722916050508,1
1649248879.7575731,0.0179443359375,-0.00714111328125,0.9810791015625,0.9812691772463944,0.91552734375,-8.6669921875,-8.97216796875,9.579408954732664,0.0539774256903911,0.00641606150339069,1
1649248879.7634516,0.0179443359375,-0.00714111328125,0.9810791015625,0.9814863224855872,-2.86865234375,8.056640625,-13.0615234375,14.393689403994408,0.05408270518819336,0.006733056134759829,1
