time,ax,ay,az,am,gx,gy,gz,gm,velx,distx,button
1649249366.2806954,-0.03497314453125,-0.0150146484375,0.9847412109375,0.9854764396091665,0.8544921875,-0.9765625,7.32421875,6.704983469169658,0,0,0
1649249366.2858145,0.0509033203125,-0.0069580078125,0.98309326171875,0.9844348242155834,-0.244140625,-5.31005859375,4.638671875,6.99591766255097,6.405531166819856e-05,2.575695178365714e-07,0
1649249366.2907403,0.0509033203125,-0.0069580078125,0.98309326171875,0.9844348242155834,0.91552734375,0.3662109375,4.5166015625,6.865302095038508,0.00031754615338286385,1.2077283285142834e-06,0
1649249366.2955873,0.0322265625,-0.00860595703125,0.9796142578125,0.9801819769494465,-2.25830078125,0.79345703125,3.7841796875,2.4566176510617805,0.0005190333104110323,3.235398909599667e-06,0
1649249366.300464,0.0322265625,-0.00860595703125,0.9796142578125,0.9801819769494465,-3.41796875,0.48828125,-3.0517578125,4.279865932191946,0.0006760130854672752,6.14601207857713e-06,0
1649249366.3053067,0.0032958984375,-0.016845703125,0.9788818359375,0.9790323229539751,-3.23486328125,-0.30517578125,0.48828125,7.123615967024626,0.000762136529374402,9.632774943959567e-06,0
1649249366.3101537,0.0032958984375,-0.016845703125,0.9788818359375,0.9790323229539751,-1.52587890625,-3.7841796875,-1.0986328125,5.924184323753751,0.0007781119129504077,1.3365605329222936e-05,0
1649249366.3150043,0.0032958984375,-0.016845703125,0.9788818359375,0.9790323229539751,-1.89208984375,-5.0048828125,3.11279296875,8.006547037014935,0.0007941022267914377,1.717946640481579e-05,0
1649249366.3201878,0.0032958984375,-0.016845703125,0.9788818359375,0.9790323229539751,-2.25830078125,2.86865234375,6.2255859375,6.937632928897862,0.0008108524125418626,2.125776081218691e-05,0
1649249366.3250794,0.0216064453125,-0.01116943359375,0.9832763671875,0.9835771494881805,3.173828125,1.77001953125,-1.03759765625,4.728944666801132,0.0008728692409931682,2.545090335311865e-05,0
1649249366.3299615,0.0216064453125,-0.01116943359375,0.9832763671875,0.9835771494881805,0.67138671875,-1.77001953125,2.38037109375,5.148343468879725,0.0009784055218915455,2.9972161953737385e-05,0
1649249366.3348365,0.017578125,-0.0106201171875,0.978515625,0.9787311202453575,2.74658203125,4.150390625,-8.85009765625,3.8770538240129997,0.0010739495264715515,3.497643324156235e-05,0
1649249366.33969,0.017578125,-0.0106201171875,0.978515625,0.9787311202453575,2.44140625,3.173828125,1.89208984375,7.1923140284919524,0.0011592689188546501,4.039614782471498e-05,0
1649249366.3445385,0.017578125,-0.0106201171875,0.978515625,0.9787311202453575,0.244140625,0.0,0.3662109375,2.0160088580216975,0.0012445505926734768,4.622730875631243e-05,0
1649249366.3494062,0.017578125,-0.0106201171875,0.978515625,0.9787311202453575,1.28173828125,1.220703125,3.84521484375,6.871268386746824,0.0013300501959747635,5.2488708822832734e-05,0
1649249366.354253,0.017578125,-0.0106201171875,0.978515625,0.9787311202453575,0.3662109375,-0.8544921875,3.173828125,8.887062485303625,0.0014152731964713894,5.914370464399788e-05,0
1649249366.3591013,0.017578125,-0.0106201171875,0.978515625,0.9787311202453575,-2.01416015625,5.7373046875,-6.7138671875,6.353815465091174,0.00150052134267753,6.621402867401909e-05,0
1649249366.3639765,0.017578125,-0.0106201171875,0.978515625,0.9787311202453575,-3.35693359375,3.47900390625,-7.50732421875,7.267541940133061,0.001586213729751762,7.373786004460665e-05,0
1649249366.368828,0.017578125,-0.0106201171875,0.978515625,0.9787311202453575,-0.06103515625,-5.126953125,-9.521484375,2.875138113602021,0.0016714493031031452,8.163599412861714e-05,0
1649249366.3736916,0.017578125,-0.0106201171875,0.978515625,0.9795479782356767,-1.8310546875,0.30517578125,0.48828125,5.570607523976872,0.0017570075797266327,8.997968443611153e-05,0
1649249366.378561,0.00933837890625,-0.01190185546875,0.97943115234375,0.9795479782356767,-4.2724609375,3.84521484375,-2.99072265625,8.18918042009769,0.0018222500220872462,9.865538424443272e-05,0
1649249366.3834167,0.00933837890625,-0.01190185546875,0.97943115234375,0.9809892363362432,2.01416015625,3.60107421875,9.27734375,9.94910491051489,0.001867776329163462,0.0001076501613076087,0
1649249366.3882847,-0.03387451171875,-0.0106201171875,0.9803466796875,0.9809892363362432,0.67138671875,-2.50244140625,8.4228515625,13.097552937624366,0.0018082214883179404,0.0001165726179966969,0
1649249366.3931372,-0.03387451171875,-0.0106201171875,0.9803466796875,0.9821153488657227,-0.48828125,0.732421875,12.0849609375,12.690910162935612,0.0016434485514764674,0.00012496745205639852,0
1649249366.397987,-0.0406494140625,-0.0047607421875,0.98126220703125,0.9821153488657227,1.52587890625,1.0986328125,13.97705078125,10.791492020115564,0.0014627224736614153,0.00013250014844230426,0
1649249366.4028404,-0.0406494140625,-0.0047607421875,0.98126220703125,0.97619942973105,-0.244140625,4.2724609375,11.71875,8.843781420648517,0.0012654019956244156,0.00013912158243882186,0
1649249366.4076912,-0.01080322265625,0.0029296875,0.97613525390625,0.97619942973105,-1.77001953125,-1.708984375,10.498046875,5.253989066566734,0.001140637781645637,0.00014495583469014296,0
1649249366.4125898,-0.01080322265625,0.0029296875,0.97613525390625,0.9848495599701517,3.72314453125,0.42724609375,14.7705078125,13.106082953032931,0.0010876867672777735,0.00015041679985584953,0
1649249366.4174411,-0.046875,0.01336669921875,0.983642578125,0.9848495599701517,-2.0751953125,0.42724609375,10.25390625,21.14751463033078,0.0009477990242885426,0.00015535348999912678,0
1649249366.4225073,-0.046875,0.01336669921875,0.983642578125,0.9780736941754259,1.89208984375,2.62451171875,10.68115234375,6.685509180380059,0.0007205153378890827,0.00015939808347442165,0
1649249366.4275026,0.02838134765625,-0.010986328125,0.97760009765625,0.9780736941754259,-2.197265625,-1.220703125,9.3994140625,10.68376781593802,0.0006726011488353834,0.00016300733552267362,0
1649249366.432367,0.02838134765625,-0.010986328125,0.97760009765625,0.9778428134535196,4.150390625,-3.5400390625,6.16455078125,13.597832866815898,0.0008115135133266449,0.00016663933142706255,0
1649249366.4372342,0.0413818359375,-0.013916015625,0.97686767578125,0.9778428134535196,1.89208984375,-2.5634765625,9.1552734375,8.64568966818948,0.0009812433199840598,0.00017100100552257854,0
1649249366.4421053,0.0413818359375,-0.013916015625,0.97686767578125,0.9841223460619181,6.28662109375,1.8310546875,8.11767578125,10.114355979797361,0.001182829488243442,0.00017627200347810398,0
1649249366.4469695,-0.05181884765625,0.0076904296875,0.98272705078125,0.9841223460619181,-1.708984375,0.06103515625,5.126953125,12.862064047970554,0.0011574941163416952,0.0001819513685907114,0
1649249366.4518776,-0.05181884765625,0.0076904296875,0.98272705078125,0.9862045928343638,0.8544921875,0.1220703125,7.87353515625,12.2416196982355,0.0009025821491377428,0.0001870184254356179,0
1649249366.4567401,0.0787353515625,-0.02545166015625,0.98272705078125,0.9862045928343638,2.86865234375,4.0283203125,15.68603515625,12.379458481618904,0.0009678730057203211,0.0001915557565334838,0
1649249366.461593,0.0787353515625,-0.02545166015625,0.98272705078125,0.9862045928343638,1.5869140625,1.708984375,10.55908203125,14.522776440395953,0.0013508587508113123,0.00019719516241545592,0
1649249366.466474,0.0787353515625,-0.02545166015625,0.98272705078125,0.9862045928343638,1.708984375,-0.6103515625,10.31494140625,9.978828071366245,0.001732812037516851,0.000204674764457906,0
1649249366.471464,0.0787353515625,-0.02545166015625,0.98272705078125,0.9862045928343638,0.06103515625,-0.8544921875,-2.9296875,3.612951315173033,0.0021208098987699486,0.00021416984538207267,0
1649249366.4766915,0.0787353515625,-0.02545166015625,0.98272705078125,0.9862045928343638,-1.15966796875,-2.9296875,3.72314453125,4.89272066011501,0.0025231495455955155,0.0002260352207543734,0
1649249366.4816468,0.0787353515625,-0.02545166015625,0.98272705078125,0.9810022407318038,-2.01416015625,-0.42724609375,6.77490234375,7.074024638014691,0.002929112182755489,0.00024009126105776091,0
1649249366.4865723,0.07525634765625,-0.016845703125,0.97796630859375,0.9810022407318038,-1.89208984375,-5.06591796875,6.2255859375,8.036269819644916,0.0033089418575400487,0.00025547779195153435,0
1649249366.491441,0.07525634765625,-0.016845703125,0.97796630859375,0.9843496251241718,3.47900390625,-1.8310546875,5.0048828125,6.235152729063542,0.0036744308163179085,0.0002724354685251073,0
1649249366.4967234,0.07525634765625,-0.02764892578125,0.9810791015625,0.9843496251241718,-2.197265625,2.0751953125,5.18798828125,11.36860684582054,0.004065756991622038,0.0002925596054607193,0
1649249366.501622,0.07525634765625,-0.02764892578125,0.9810791015625,0.9843496251241718,-5.37109375,3.0517578125,7.14111328125,9.409119190601604,0.004441544951987453,0.0003137999509276856,0
1649249366.5068202,0.07525634765625,-0.02764892578125,0.9810791015625,0.9843496251241718,-5.2490234375,2.86865234375,10.8642578125,17.69409074418169,0.0048069980257423595,0.0003362559201862802,0
1649249366.5118291,-0.0179443359375,-0.016845703125,0.9814453125,0.9817538786957942,2.8076171875,4.150390625,14.22119140625,17.09344008616356,0.004959045312716626,0.000362165259911942,0
1649249366.5167108,-0.0179443359375,-0.016845703125,0.9814453125,0.9817538786957942,-3.7841796875,4.8828125,10.07080078125,15.803273762385018,0.004871101336902939,0.00038625370158540916,0
1649249366.5215726,-0.0267333984375,0.0069580078125,0.97576904296875,0.9761599836506756,6.16455078125,2.197265625,15.13671875,14.867542673540108,0.004761955598951317,0.0004097868355435654,0
1649249366.526431,-0.0267333984375,0.0069580078125,0.97576904296875,0.9761599836506756,-0.18310546875,3.90625,13.7939453125,17.84649599661793,0.004632046053302474,0.00043261166436811375,0
1649249366.5312934,-0.0267333984375,0.0069580078125,0.97576904296875,0.9761599836506756,1.0986328125,-3.23486328125,17.39501953125,15.56994753274426,0.0045021938713034615,0.00045479554398008236,0
1649249366.536149,-0.0267333984375,0.0069580078125,0.97576904296875,0.9761599836506756,-2.0751953125,-0.732421875,16.4794921875,20.499999965109478,0.004372258830699138,0.00047636224405511567,0
1649249366.5409963,-0.0267333984375,0.0069580078125,0.97576904296875,0.9761599836506756,-0.6103515625,7.568359375,19.6533203125,33.47086943710686,0.004242515002260916,0.0004972670635607756,0
1649249366.546099,-0.0267333984375,0.0069580078125,0.97576904296875,0.9761599836506756,1.708984375,3.23486328125,20.5078125,14.597231055629166,0.004113102608243935,0.0005174912127835895,0
1649249366.5511947,0.03955078125,-0.0084228515625,0.9755859375,0.9764236427768856,-0.18310546875,5.0048828125,14.7705078125,16.686614338092593,0.004146951483562589,0.0005393086607454155,0
1649249366.5563195,0.03955078125,-0.0084228515625,0.9755859375,0.9764236427768856,-0.42724609375,1.220703125,18.12744140625,17.052309507416968,0.004342889995314181,0.0005603384211168121,0
1649249366.5614476,0.0494384765625,-0.01190185546875,0.9847412109375,0.9860532793145985,-1.03759765625,-0.3662109375,13.0615234375,13.124829472841823,0.004578395280987024,0.0005839481228854353,0
1649249366.5663276,0.0494384765625,-0.01190185546875,0.9847412109375,0.9860532793145985,-2.38037109375,-5.615234375,10.25390625,9.990953585483568,0.0048233419947791845,0.0006072389361321262,0
1649249366.5711803,0.062255859375,-0.012451171875,0.977783203125,0.9798422403739112,-3.72314453125,-2.197265625,8.544921875,5.715837289278885,0.005094435444334522,0.0006313103850137947,0
1649249366.5760467,0.062255859375,-0.012451171875,0.977783203125,0.9798422403739112,0.06103515625,-2.44140625,1.89208984375,5.367624723125159,0.005397573084337637,0.0006568543477524363,0
1649249366.5808916,0.06243896484375,-0.0087890625,0.97833251953125,0.9803623772476949,1.0986328125,2.25830078125,3.72314453125,6.099547049637303,0.005699551118595991,0.0006837286608902772,0
1649249366.5869317,0.06243896484375,-0.0087890625,0.97833251953125,0.9803623772476949,-2.197265625,2.74658203125,8.97216796875,8.127078010683158,0.006003565453283954,0.0007122198058610437,0
1649249366.5923505,0.01556396484375,-0.0069580078125,0.98199462890625,0.9821426078096296,-0.67138671875,-2.38037109375,-0.48828125,6.143060371135806,0.006250184880627785,0.0007509621056986339,0
1649249366.5973115,0.01556396484375,-0.0069580078125,0.98199462890625,0.9821426078096296,-1.708984375,2.197265625,2.685546875,10.874197195829128,0.006331368414976168,0.0007837755621149098,0
1649249366.602192,0.01556396484375,-0.0069580078125,0.98199462890625,0.9821426078096296,-4.2724609375,-4.0283203125,5.126953125,2.214996009719733,0.006407464527001139,0.0008149172303322265,0
1649249366.6070457,0.01556396484375,-0.0069580078125,0.98199462890625,0.9821426078096296,4.5166015625,4.0283203125,7.62939453125,8.892929086979608,0.006483000317530241,0.0008461975455377148,0
1649249366.6118984,0.01556396484375,-0.0069580078125,0.98199462890625,0.9821426078096296,1.5869140625,1.77001953125,10.31494140625,4.213636619651662,0.006558539818797726,0.0008778460183898528,0
1649249366.6167667,0.01556396484375,-0.0069580078125,0.98199462890625,0.9821426078096296,1.0986328125,-1.28173828125,7.26318359375,5.062975660984006,0.006634283410676289,0.0009099481153956998,0
1649249366.6216207,0.01556396484375,-0.0069580078125,0.98199462890625,0.9821426078096296,5.2490234375,0.42724609375,7.6904296875,13.245332057587888,0.0067098674408043735,0.0009423500357970118,0
1649249366.6264718,0.01556396484375,-0.0069580078125,0.98199462890625,0.9821426078096296,-1.28173828125,0.3662109375,-0.9765625,8.126848817434176,0.00678535128099611,0.0009750753388793427,0
1649249366.6313298,0.02197265625,-0.01171875,0.98089599609375,0.9812120473562242,3.60107421875,2.8076171875,-3.173828125,2.99072265625,0.006876505678519607,0.0010082519622383428,0
1649249366.6361818,0.02197265625,-0.01171875,0.98089599609375,0.9812120473562242,5.615234375,1.15966796875,6.77490234375,4.9596463423054695,0.00698320206720382,0.0010419024400836717,0
1649249366.6410542,0.00970458984375,-0.01080322265625,0.97723388671875,0.9773417815867849,0.54931640625,4.0283203125,9.58251953125,9.146724524268656,0.007060346506477799,0.0010761030671497763,0
1649249366.6459317,0.00970458984375,-0.01080322265625,0.97723388671875,0.9773417815867849,0.79345703125,4.5166015625,9.1552734375,9.308411628840103,0.007107567922503222,0.0011105727867481976,0
1649249366.6507876,0.0113525390625,-0.008056640625,0.97943115234375,0.9795300770179198,1.89208984375,0.244140625,3.84521484375,9.528719769434518,0.007158823806094006,0.0011452991028075756,0
1649249366.6556354,0.0113525390625,-0.008056640625,0.97943115234375,0.9795300770179198,-3.173828125,1.220703125,1.8310546875,2.2124717969228342,0.007213869073893875,0.0011801436747675854,0
1649249366.6604893,0.02252197265625,-0.0135498046875,0.985107421875,0.98545799965935,-2.62451171875,2.685546875,3.0517578125,5.095978676424972,0.007296053634490818,0.0012153468869049323,0
1649249366.6654348,0.02252197265625,-0.0135498046875,0.985107421875,0.98545799965935,-4.0283203125,-5.92041015625,-2.44140625,4.737602141192634,0.0074051811679964885,0.0012509634272046995,0
1649249366.6703658,0.015380859375,-0.01153564453125,0.98199462890625,0.9821828206248512,3.0517578125,-0.67138671875,1.220703125,2.537917832799291,0.007500423882447649,0.0012884184196013298,0
1649249366.6752126,0.015380859375,-0.01153564453125,0.98199462890625,0.9821828206248512,-2.86865234375,2.197265625,2.197265625,8.170736040206902,0.007575192030344624,0.0013250605815483324,0
1649249366.680097,0.0128173828125,-0.0084228515625,0.97705078125,0.977171151268723,-4.8828125,-4.94384765625,-2.685546875,9.288179193565389,0.007644001780136023,0.0013621986737443843,0
1649249366.684935,0.0128173828125,-0.0084228515625,0.97705078125,0.977171151268723,-5.0048828125,5.37109375,8.30078125,7.781204483940869,0.007706064097874332,0.0013993615126702838,0
1649249366.6897922,0.01446533203125,-0.00732421875,0.97906494140625,0.9791991878580659,-0.6103515625,1.28173828125,4.0283203125,12.41371654607014,0.00777234054839937,0.0014369623792123568,0
1649249366.6946287,0.01446533203125,-0.00732421875,0.97906494140625,0.9791991878580659,3.173828125,0.244140625,0.67138671875,9.283365002229413,0.007842299535695929,0.0014747210841257194,0
1649249366.6995008,0.01519775390625,-0.00677490234375,0.983642578125,0.9837833056755736,3.662109375,-0.732421875,2.5634765625,2.105491737141155,0.00791437263978878,0.001513005444567968,0
1649249366.704351,0.01519775390625,-0.00677490234375,0.983642578125,0.9837833056755736,0.9765625,0.3662109375,1.77001953125,2.5349804269159164,0.00798816735186847,0.0015516138918181066,0
1649249366.7097638,0.01739501953125,-0.0106201171875,0.98199462890625,0.9822061009759064,0.67138671875,4.150390625,4.08935546875,10.729695773118033,0.00807483810785925,0.0015943286619909585,0
1649249366.714758,0.01739501953125,-0.0106201171875,0.98199462890625,0.9822061009759064,-1.3427734375,0.79345703125,-0.3662109375,14.389418337056284,0.00816314233088633,0.0016355439720283057,0
1649249366.7196243,0.01556396484375,-0.01116943359375,0.97650146484375,0.976689359054583,1.8310546875,-2.5634765625,0.18310546875,9.550783122243873,0.008243435724580195,0.0016755130383074206,0
1649249366.7244923,0.01556396484375,-0.01116943359375,0.97650146484375,0.976689359054583,-1.15966796875,-1.40380859375,1.5869140625,10.465883175617606,0.00831923868827289,0.0017158465850538847,0
1649249366.7293494,0.01702880859375,-0.00750732421875,0.97998046875,0.9801571605464696,-2.99072265625,2.99072265625,-1.0986328125,5.729182561216558,0.008398387384659145,0.0017564438761338468,0
1649249366.7342103,0.01702880859375,-0.00750732421875,0.97998046875,0.9801571605464696,-3.35693359375,4.57763671875,2.74658203125,6.734919054752794,0.008481137985654641,0.0017974564596396842,0
1649249366.7390628,0.01519775390625,-0.00677490234375,0.98272705078125,0.9828679094175249,-0.732421875,2.5634765625,3.173828125,11.526760333456345,0.008559358953789342,0.0018388175004922331,0
1649249366.7439227,0.01519775390625,-0.00677490234375,0.98272705078125,0.9828679094175249,-2.38037109375,1.220703125,-1.52587890625,2.596685471946124,0.008633208017272409,0.0018805886390932036,0
1649249366.7487762,0.017578125,-0.0113525390625,0.98455810546875,0.9847804494738386,2.44140625,-2.9296875,1.64794921875,7.653282914064831,0.008712695875146892,0.0019226558174364255,0
1649249366.75363,0.017578125,-0.0113525390625,0.98455810546875,0.9847804494738386,3.11279296875,4.5166015625,-0.54931640625,2.7755900881108575,0.008798082322755363,0.0019651854713437318,0
1649249366.7598739,0.0157470703125,-0.012451171875,0.9788818359375,0.9790876623841495,-5.06591796875,0.48828125,-5.18798828125,7.427755335242333,0.008878957996785175,0.002008085221436382,0
1649249366.764883,0.0157470703125,-0.012451171875,0.9788818359375,0.9790876623841495,-1.03759765625,-0.8544921875,7.32421875,3.8510233286980853,0.008979159021691885,0.0020649021909629273,0
1649249366.769785,0.01611328125,-0.01153564453125,0.97979736328125,0.9799977459261234,-1.15966796875,1.0986328125,-0.67138671875,10.101087861442121,0.00905779384629568,0.0021094193590292876,0
1649249366.7746325,0.01611328125,-0.01153564453125,0.97979736328125,0.9799977459261234,-3.35693359375,-3.7841796875,3.2958984375,7.135372625804414,0.009135964872257318,0.00215355142508901,0
1649249366.7795036,0.01666259765625,-0.0076904296875,0.9814453125,0.9816168734784744,-5.18798828125,7.62939453125,-0.42724609375,4.89272066011501,0.009215691068675369,0.002198191196011043,0
1649249366.7846868,0.01666259765625,-0.0076904296875,0.9814453125,0.9816168734784744,1.0986328125,-3.5400390625,5.7373046875,6.006305957100851,0.00929767511843238,0.0022437363374699527,0
1649249366.7899308,0.01739501953125,-0.0106201171875,0.9840087890625,0.9842198283644851,-5.4931640625,-1.28173828125,-2.9296875,1.9397276101160528,0.009387648431584239,0.002293099170396693,0
1649249366.79516,0.01739501953125,-0.0106201171875,0.9840087890625,0.9842198283644851,-1.28173828125,-0.91552734375,-1.64794921875,6.876687796365016,0.009478698164457455,0.0023424746774140075,0
1649249366.8003945,0.01776123046875,-0.01171875,0.982177734375,0.982408210629031,-5.18798828125,1.8310546875,4.150390625,6.069853462134677,0.00957066859700717,0.0023923087325492982,0
1649249366.8058145,0.01776123046875,-0.01171875,0.982177734375,0.982408210629031,-4.33349609375,-2.25830078125,-1.5869140625,1.0231356576074346,0.009663440374424681,0.002442541245422248,0
1649249366.8114727,0.01776123046875,-0.01171875,0.982177734375,0.982408210629031,2.197265625,1.46484375,0.0,7.41344776559521,0.009765583337866701,0.002498408378677751,0
1649249366.8169456,0.013916015625,-0.01300048828125,0.97998046875,0.9801654897607321,-0.42724609375,5.37109375,-7.38525390625,3.678349407548673,0.009850929731328506,0.0025512601524019353,0
1649249366.8226664,0.013916015625,-0.01300048828125,0.97998046875,0.9801654897607321,7.32421875,-7.080078125,-4.57763671875,7.46178187839954,0.00992982125171693,0.0026073298479789434,0
1649249366.8280077,0.01593017578125,-0.009521484375,0.980712890625,0.9808884763331498,-4.7607421875,-4.0283203125,0.6103515625,3.1247377285571787,0.010012906343035866,0.002662845921061947,0
1649249366.8332455,0.01593017578125,-0.009521484375,0.980712890625,0.9808884763331498,5.0048828125,0.0,2.5634765625,6.390354626445977,0.010096634352521505,0.002715693166353843,0
1649249366.838472,0.01593017578125,-0.009521484375,0.980712890625,0.9808884763331498,-4.8828125,-1.40380859375,-6.7138671875,4.64589410009401,0.010179815442825202,0.002768630975221284,0
1649249366.843747,0.01593017578125,-0.009521484375,0.980712890625,0.9808884763331498,-0.6103515625,1.77001953125,0.244140625,5.911594394904916,0.010263877680699807,0.002822570825540071,0
1649249366.8489757,0.01446533203125,-0.01007080078125,0.97613525390625,0.9762943719891911,4.21142578125,3.2958984375,-2.50244140625,6.271492244367435,0.010343303198169451,0.002876418782777412,0
1649249366.854255,0.01446533203125,-0.01007080078125,0.97613525390625,0.9762943719891911,-1.0986328125,-0.244140625,-9.521484375,4.755261518745717,0.010419204474601429,0.002930890426804924,0
1649249366.859943,0.01446533203125,-0.00897216796875,0.9788818359375,0.9790298230172585,3.41796875,-1.89208984375,0.67138671875,8.25329831687769,0.010499782329134177,0.0029891541110398387,0
1649249366.8652778,0.01446533203125,-0.00897216796875,0.9788818359375,0.98272218910921,-1.220703125,1.5869140625,-1.15966796875,2.9455391875033334,0.010578804773103911,0.0030467290586680485,0
1649249366.8705945,0.01611328125,-0.009521484375,0.9825439453125,0.98272218910921,0.48828125,-4.82177734375,-10.25390625,6.5816164876506695,0.010660294443368912,0.003103329636855067,0
1649249366.8758545,0.01318359375,-0.00750732421875,0.97943115234375,0.979548645674372,-1.52587890625,0.6103515625,0.1220703125,9.273528268140087,0.010737502248957753,0.003159720529298398,0
1649249366.8810806,0.01318359375,-0.00750732421875,0.97943115234375,0.979548645674372,-1.89208984375,1.15966796875,2.197265625,8.292923742559399,0.010806404636241496,0.0032160187831720387,0
1649249366.8865108,0.01446533203125,-0.00933837890625,0.97906494140625,0.9792163247424926,1.03759765625,-6.8359375,5.55419921875,2.011383917637217,0.010880545058171265,0.003274172203432721,0
1649249366.8918617,0.01446533203125,-0.00933837890625,0.97906494140625,0.9792163247424926,0.30517578125,2.197265625,-6.2255859375,4.154876080350954,0.010957943115499802,0.0033325965989454837,0
1649249366.8972309,0.01409912109375,-0.01025390625,0.980712890625,0.9808678308758235,-3.72314453125,-2.8076171875,2.62451171875,3.916726368929308,0.011034453389584087,0.003391503530473662,0
1649249366.9025915,0.01409912109375,-0.01025390625,0.980712890625,0.9808678308758235,3.23486328125,4.638671875,-4.08935546875,5.2198441780335205,0.011110056715551764,0.0034508759766261835,0
1649249366.9079583,0.0186767578125,-0.00677490234375,0.9814453125,0.9816463833847587,0.30517578125,2.62451171875,-3.84521484375,4.83142515311604,0.01119785125774797,0.0035106306691997363,0
1649249366.9133172,0.0186767578125,-0.00677490234375,0.9814453125,0.9816463833847587,7.38525390625,0.06103515625,1.220703125,4.343370819008104,0.011298223762423731,0.003571079795804495,0
1649249366.918749,0.017578125,-0.00970458984375,0.98016357421875,0.9803692170645844,7.99560546875,1.0986328125,1.15966796875,5.0219732496885285,0.011395683031878434,0.003632084863416608,0
1649249366.9241042,0.017578125,-0.00970458984375,0.98016357421875,0.9807319838678729,2.9296875,3.11279296875,3.72314453125,2.365456832895032,0.011490775723359548,0.003693989502321698,0
1649249366.9294538,0.016845703125,-0.0106201171875,0.98052978515625,0.9807319838678729,-1.953125,-3.41796875,-1.46484375,6.602525810067032,0.011582787541556172,0.0037556630762359804,0
1649249366.935348,0.0164794921875,-0.00933837890625,0.97869873046875,0.9788820071921321,-0.30517578125,1.03759765625,1.0986328125,9.494842032534207,0.011679911447572522,0.003823460554063794,0
1649249366.9407556,0.0164794921875,-0.00933837890625,0.97869873046875,0.9788820071921321,3.11279296875,-1.46484375,3.23486328125,1.7263349150062195,0.011770129538490437,0.0038876499691755714,0
1649249366.9461372,0.0157470703125,-0.00750732421875,0.9788818359375,0.9790372714400218,-2.99072265625,-2.13623046875,0.3662109375,3.8852125153416868,0.011856836834340356,0.00395121959014663,0
1649249366.9515445,0.0157470703125,-0.00750732421875,0.9788818359375,0.9790372714400218,-1.28173828125,-2.685546875,7.080078125,4.19769259376206,0.011942091616219841,0.00401564339767886,0
1649249366.9569094,0.01776123046875,-0.01226806640625,0.979248046875,0.9794859386788636,-1.77001953125,3.41796875,-0.67138671875,9.114901219228742,0.012031740196107421,0.004079783324990287,0
1649249366.9622712,0.01776123046875,-0.01226806640625,0.979248046875,0.9794859386788636,-2.50244140625,1.64794921875,-1.8310546875,8.774851860795675,0.012127158603107091,0.00414467757998977,0
1649249366.96767,0.0172119140625,-0.00970458984375,0.97906494140625,0.979264309847221,-1.03759765625,-0.54931640625,-4.08935546875,3.6062429801568476,0.012221522549225483,0.004210374779000845,0
1649249366.973034,0.0172119140625,-0.00970458984375,0.97906494140625,0.9791835743715915,7.38525390625,1.89208984375,1.52587890625,3.711118191787173,0.012313813414948527,0.004276154429907679,0
1649249366.9784129,0.01336669921875,-0.00732421875,0.97906494140625,0.9791835743715915,3.72314453125,-1.8310546875,0.18310546875,5.462902212284089,0.012396090460242704,0.00434264069799494,0
1649249366.9839728,0.01556396484375,-0.00732421875,0.982177734375,0.9823283478979742,-3.2958984375,2.25830078125,-7.38525390625,8.958871551728038,0.012473560942453332,0.0044092366075259085,0
1649249366.9895434,0.01556396484375,-0.00732421875,0.982177734375,0.9823283478979742,-4.82177734375,8.60595703125,-0.79345703125,7.319639681875007,0.012562718853587285,0.004480946561627884,0
1649249366.994857,0.01519775390625,-0.0084228515625,0.98236083984375,0.9825144964888592,-0.06103515625,-1.52587890625,-6.89697265625,8.725679521960716,0.012646273331483826,0.004549418814346911,0
1649249367.0000913,0.01519775390625,-0.0084228515625,0.98236083984375,0.9825144964888592,-7.26318359375,-2.62451171875,-11.65771484375,9.929427628977061,0.012725861903163604,0.004615854026294951,0
1649249367.0053225,0.01519775390625,-0.0084228515625,0.98236083984375,0.9825144964888592,-3.7841796875,1.52587890625,-1.953125,3.396648944818488,0.01280536713602487,0.004682635812686433,0
1649249367.01062,0.01519775390625,-0.0084228515625,0.98236083984375,0.9825144964888592,-2.9296875,-0.79345703125,-8.36181640625,6.224688296959324,0.012885850694146939,0.004750662990788423,0
1649249367.01585,0.00677490234375,-0.01409912109375,0.979248046875,0.979372973808184,2.8076171875,1.46484375,2.62451171875,3.53898657576275,0.012943316498422064,0.004818214853867228,0
1649249367.0211468,0.00677490234375,-0.01409912109375,0.979248046875,0.979372973808184,-5.67626953125,-5.7373046875,-7.32421875,4.288995627627164,0.012979189865291119,0.004886845184886595,0
1649249367.0264738,0.0146484375,-0.01043701171875,0.98236083984375,0.9825254844498063,4.0283203125,0.6103515625,-0.91552734375,5.749628345254242,0.013035190931987017,0.004954847330430017,0
1649249367.0321715,0.0146484375,-0.01043701171875,0.98236083984375,0.9812232036637114,1.03759765625,-2.0751953125,6.8359375,7.725710398530143,0.013116704940330237,0.005027610922394248,0
1649249367.0375624,0.01373291015625,-0.00970458984375,0.9810791015625,0.9812232036637114,-2.9296875,1.220703125,-7.2021484375,4.673077329724358,0.01319634829997085,0.0051014502618027275,0
1649249367.0427995,0.01373291015625,-0.0142822265625,0.98016357421875,0.9803638136132,-2.25830078125,1.77001953125,7.4462890625,5.122591615809885,0.013268465409055352,0.005170939024033006,0
1649249367.048026,0.01373291015625,-0.0142822265625,0.98016357421875,0.9803638136132,-2.197265625,0.06103515625,2.5634765625,8.598811653006017,0.013340274745132774,0.005240507525632038,0
1649249367.0532537,0.0150146484375,-0.00860595703125,0.9803466796875,0.9804994209781213,-0.91552734375,-2.38037109375,2.38037109375,5.259304180790432,0.013415428329608403,0.005310453882456564,0
1649249367.0584745,0.0150146484375,-0.00860595703125,0.9803466796875,0.9804994209781213,-6.4697265625,-1.220703125,5.4931640625,0.9195873518871682,0.01349382173793856,0.0053807022081894165,0
1649249367.0637145,0.0135498046875,-0.00787353515625,0.9818115234375,0.9819365851813399,-1.0986328125,-0.67138671875,-0.9765625,3.1199653122881,0.013568442154792137,0.00545139837744006,0
1649249367.0690043,0.0135498046875,-0.00787353515625,0.9818115234375,0.9819365851813399,-0.8544921875,6.103515625,-4.5166015625,6.621400269021521,0.013639998287544586,0.005523241877076443,0
1649249367.0742862,0.0135498046875,-0.00787353515625,0.9818115234375,0.9819365851813399,-2.5634765625,-1.3427734375,2.5634765625,7.691640607170466,0.013711848398088478,0.005595760752929882,0
1649249367.07952,0.0135498046875,-0.00787353515625,0.9818115234375,0.9819365851813399,1.46484375,5.79833984375,1.77001953125,7.0858635777631,0.013782687354250811,0.005667632055055013,0
1649249367.0848129,0.0146484375,-0.01190185546875,0.98016357421875,0.9803452774966918,1.52587890625,-1.28173828125,-4.94384765625,13.547330063301207,0.013856757839675993,0.0057402347055601,0
1649249367.0900762,0.0146484375,-0.01190185546875,0.98016357421875,0.9803452774966918,2.86865234375,1.5869140625,-3.5400390625,3.9990838014846597,0.013934367278125137,0.005813855308926925,0
1649249367.0953403,0.01739501953125,-0.008056640625,0.979248046875,0.9794356709203291,-4.08935546875,-2.0751953125,-8.056640625,3.195468777516705,0.014018763657077216,0.005887478545926719,0
1649249367.1006274,0.01739501953125,-0.008056640625,0.979248046875,0.9812796324762783,0.1220703125,-1.5869140625,-2.9296875,2.916305496923899,0.014110783857177012,0.005961881641201438,0
1649249367.1058626,0.01812744140625,-0.008056640625,0.9810791015625,0.9812796324762783,1.220703125,5.67626953125,0.9765625,9.434029389426005,0.014203797007212415,0.006036021447077015,0
1649249367.111085,0.01812744140625,-0.008056640625,0.9810791015625,0.9783035094100838,-1.220703125,0.0,2.86865234375,1.497539568650549,0.014298485926701687,0.006110462464799994,0
1649249367.1163042,0.015380859375,-0.008056640625,0.9781494140625,0.9783035094100838,2.3193359375,2.197265625,-4.8828125,9.070448513801916,0.014385981470695697,0.006185362206672852,0
1649249367.1215427,0.01446533203125,-0.0091552734375,0.9818115234375,0.9819607591024981,-8.30078125,-1.953125,-10.498046875,4.904887842496201,0.014464117462921422,0.006260890473422373,0
1649249367.1267943,0.01446533203125,-0.0091552734375,0.9818115234375,0.9819607591024981,1.03759765625,2.8076171875,-4.57763671875,5.370053277239777,0.014539949763275217,0.006336915176229992,0
1649249367.1320214,0.01702880859375,-0.00640869140625,0.9810791015625,0.981247805179887,6.8359375,7.2021484375,5.126953125,8.067037636197762,0.01462246759183472,0.00641332365437654,0
1649249367.137244,0.01702880859375,-0.00640869140625,0.9810791015625,0.981247805179887,3.90625,5.615234375,-1.3427734375,2.384280393630934,0.014711369069118518,0.00648989452541556,0
1649249367.1424687,0.01318359375,-0.0120849609375,0.980712890625,0.9808759489675895,2.197265625,3.90625,4.7607421875,2.1397153494821906,0.014790272900427226,0.006566942108550785,0
1649249367.1477509,0.01318359375,-0.0120849609375,0.980712890625,0.9808759489675895,-0.244140625,-1.77001953125,2.44140625,3.60107421875,0.014859341878036503,0.006644609420593732,0
1649249367.1529777,0.01318359375,-0.0120849609375,0.980712890625,0.9808759489675895,0.48828125,-0.91552734375,0.8544921875,7.763950174969713,0.014928756609151606,0.0067230301033805616,0
1649249367.1582024,0.01318359375,-0.0120849609375,0.980712890625,0.9808759489675895,0.0,-6.2255859375,-1.77001953125,3.622219268788523,0.014997721860709134,0.0068013049332578445,0
1649249367.1634223,0.015380859375,-0.01318359375,0.9803466796875,0.9805559598276807,-1.220703125,-1.89208984375,-2.5634765625,3.739617598154392,0.015072243528265972,0.006879754324686997,0
1649249367.1691608,0.015380859375,-0.01318359375,0.9803466796875,0.9805559598276807,-3.173828125,-4.638671875,-12.39013671875,4.4249435938456685,0.015159336740907747,0.00696534659832678,0
1649249367.1744592,0.015380859375,-0.01318359375,0.9803466796875,0.9805559598276807,2.5634765625,-4.5166015625,3.96728515625,11.229639437365487,0.015241985449392814,0.007047027015331007,0
1649249367.179771,0.015380859375,-0.01318359375,0.9803466796875,0.9783458162632517,6.65283203125,-4.8828125,-3.90625,5.986736837501885,0.01532364771264838,0.007128168735731519,0
1649249367.1851408,0.01483154296875,-0.0128173828125,0.9781494140625,0.9783458162632517,2.50244140625,3.84521484375,6.4697265625,8.68695605928469,0.015402598364744335,0.007208462157508115,0
1649249367.1905162,0.0120849609375,-0.01263427734375,0.97943115234375,0.979587185209293,-3.23486328125,-3.60107421875,-6.103515625,2.7165787456381696,0.015475891428650357,0.007292543624166316,0
1649249367.1958754,0.0120849609375,-0.01263427734375,0.97943115234375,0.979587185209293,3.23486328125,2.685546875,2.0751953125,8.182126371161658,0.015540749023784883,0.007375773711516246,0
1649249367.201238,0.01446533203125,-0.010986328125,0.979248046875,0.9794165010581283,7.62939453125,4.638671875,-5.859375,7.8291715124202215,0.015611801041814033,0.007459141964797676,0
1649249367.2066174,0.01446533203125,-0.010986328125,0.979248046875,0.9794165010581283,-2.5634765625,-3.96728515625,-4.0283203125,3.4960946024462123,0.015689578467572574,0.0075432928406874164,0
1649249367.211974,0.01446533203125,-0.010986328125,0.979248046875,0.9794165010581283,-0.79345703125,-0.79345703125,-3.5400390625,2.76415817241803,0.01576716965792002,0.007627658914215627,0
1649249367.2175884,0.01446533203125,-0.010986328125,0.979248046875,0.9794165010581283,-0.48828125,4.57763671875,1.28173828125,2.951856027671813,0.01584530575928511,0.007713038066877451,0
1649249367.2232485,0.01446533203125,-0.010986328125,0.979248046875,0.9794165010581283,0.9765625,4.21142578125,4.57763671875,4.406805909713061,0.01592919101676671,0.007805169095658854,0
1649249367.2286322,0.01446533203125,-0.010986328125,0.979248046875,0.9783370431820073,-1.89208984375,-1.5869140625,-3.84521484375,3.5405651885432556,0.016008047918148804,0.007892221079521592,0
1649249367.2339914,0.0150146484375,-0.01190185546875,0.9781494140625,0.9783370431820073,-2.197265625,0.3662109375,-0.30517578125,2.225901187598934,0.01608710884465836,0.007978295520202676,0
1649249367.2397327,0.015380859375,-0.01007080078125,0.9796142578125,0.9797867553570135,-0.54931640625,3.35693359375,1.0986328125,7.038917599286375,0.016168458401807584,0.0080646232804521,0
1649249367.2453513,0.015380859375,-0.01007080078125,0.9796142578125,0.9797867553570135,2.5634765625,-0.42724609375,-2.62451171875,3.218700408553518,0.016259908108622767,0.008161027666500073,0
1649249367.2507277,0.0146484375,-0.00823974609375,0.97998046875,0.9801245784431439,6.89697265625,7.2021484375,-2.50244140625,9.544930567541314,0.016341541209840216,0.008249653032026539,0
1649249367.2561355,0.0146484375,-0.00823974609375,0.97998046875,0.9801245784431439,-0.244140625,-1.64794921875,-3.662109375,5.605274157186942,0.016420743209891953,0.008338223517865272,0
1649249367.2615426,0.01373291015625,-0.01043701171875,0.97906494140625,0.9792168725700149,-0.9765625,3.41796875,0.244140625,2.752678780219649,0.016497409247676842,0.008427144747071418,0
1649249367.2669322,0.01373291015625,-0.01043701171875,0.97906494140625,0.9792168725700149,-0.6103515625,-0.91552734375,4.638671875,7.158047412880496,0.01657103247998748,0.00851578603066558,0
1649249367.2723472,0.01593017578125,-0.0113525390625,0.97833251953125,0.9785280626614399,2.44140625,-1.0986328125,6.4697265625,4.656706435598749,0.016651790283503942,0.00860623522393729,0
1649249367.2777987,0.01593017578125,-0.0113525390625,0.97833251953125,0.9808875021781269,-1.64794921875,-2.0751953125,-2.0751953125,8.415993372422317,0.016738006015657447,0.008696589711355342,0
1649249367.2833078,0.0164794921875,-0.0084228515625,0.980712890625,0.9808875021781269,-6.103515625,-1.64794921875,-5.43212890625,13.718932774049621,0.016825723680085503,0.008787430875826509,0
1649249367.2886162,0.0150146484375,-0.00933837890625,0.9796142578125,0.9797738203778633,1.40380859375,-6.77490234375,-5.2490234375,6.2261842926301725,0.01691263039538171,0.008880530400817892,0
1649249367.2945247,0.0150146484375,-0.00933837890625,0.9796142578125,0.9797738203778633,0.06103515625,1.52587890625,6.40869140625,9.963697163388275,0.017001526852254756,0.008980927304205267,0
1649249367.2997925,0.01666259765625,-0.00823974609375,0.9803466796875,0.9805228951690262,-2.44140625,-2.5634765625,-3.11279296875,7.141634930199252,0.017084924715163652,0.009070667971890111,0
1649249367.3050702,0.01666259765625,-0.00823974609375,0.9803466796875,0.9805228951690262,2.25830078125,3.84521484375,-3.96728515625,4.543328465318952,0.017172990927065257,0.00916119901994444,0
1649249367.3103318,0.01226806640625,-0.009521484375,0.98126220703125,0.9813850839838005,-2.13623046875,2.62451171875,-4.8828125,4.693361432364367,0.0172489922188106,0.009251626089916677,0
1649249367.315544,0.01226806640625,-0.009521484375,0.98126220703125,0.9813850839838005,3.90625,5.0048828125,-4.0283203125,6.539027607048761,0.017313016120169777,0.009341811231543505,0
1649249367.320772,0.01226806640625,-0.00933837890625,0.98272705078125,0.9828479877942257,5.2490234375,0.9765625,1.220703125,1.2403809468323714,0.017377045871398877,0.00943233878355898,0
1649249367.3259919,0.01226806640625,-0.00933837890625,0.98272705078125,0.9828479877942257,1.3427734375,-0.42724609375,-4.39453125,6.15396629615111,0.017441063922888134,0.009523183887903772,0
1649249367.3312397,0.0146484375,-0.0087890625,0.9781494140625,0.9782985743481549,4.21142578125,2.0751953125,3.5400390625,5.3324610498492895,0.01751164242887171,0.009614834341580152,0
1649249367.3364637,0.0146484375,-0.0087890625,0.9781494140625,0.9782985743481549,1.708984375,-3.60107421875,-0.8544921875,2.9575296483363567,0.017588204129424412,0.009706560982788201,0
1649249367.3417087,0.0146484375,-0.0087890625,0.9781494140625,0.9782985743481549,1.0986328125,-2.8076171875,-3.35693359375,4.754869800674395,0.017665066181507427,0.009799049983705038,0
1649249367.3469288,0.0146484375,-0.0087890625,0.9781494140625,0.9839763004233665,1.03759765625,-3.7841796875,1.46484375,4.223791571483388,0.01774152660073014,0.009891455843626199,0
1649249367.352155,0.0157470703125,-0.0069580078125,0.98382568359375,0.9839763004233665,-3.662109375,-0.54931640625,3.41796875,5.564585605489005,0.01782096298848046,0.009984395752042978,0
1649249367.3574283,0.0150146484375,-0.00787353515625,0.98199462890625,0.9821409692219758,-1.3427734375,0.8544921875,0.67138671875,5.959294623966617,0.01790205318684457,0.010078564302615965,0
1649249367.3626547,0.0150146484375,-0.00787353515625,0.98199462890625,0.9821409692219758,-4.150390625,4.94384765625,-1.77001953125,6.709704409056499,0.01798053608945338,0.010172345045177014,0
1649249367.3678827,0.0054931640625,-0.00604248046875,0.980712890625,0.9807468889880181,-0.91552734375,0.42724609375,-4.8828125,6.598857347959669,0.018034139058727305,0.010266479586604985,0
1649249367.373113,0.0054931640625,-0.00604248046875,0.980712890625,0.9807468889880181,-0.54931640625,0.244140625,1.220703125,7.35289997902717,0.018062871960864868,0.010360885276411784,0
1649249367.3783412,0.00714111328125,-0.00787353515625,0.97998046875,0.9800381151701305,1.46484375,3.7841796875,7.87353515625,3.0012917121934195,0.018095883169735316,0.01045536192795546,0
1649249367.3835661,0.00714111328125,-0.00787353515625,0.97998046875,0.9800381151701305,-2.62451171875,0.54931640625,1.52587890625,9.37222598678849,0.018133222321921494,0.010550078537974373,0
1649249367.3889828,0.00714111328125,-0.00787353515625,0.97998046875,0.9800381151701305,0.0,-3.7841796875,3.23486328125,5.363111633597089,0.018171394032833632,0.010647108879441468,0
1649249367.394329,0.00714111328125,-0.00787353515625,0.97998046875,0.9800381151701305,1.8310546875,0.6103515625,0.42724609375,2.9512249520841265,0.01820955723087536,0.010744321554366323,0
1649249367.4002757,0.00714111328125,-0.00787353515625,0.97998046875,0.9800381151701305,4.150390625,4.33349609375,-1.5869140625,6.537603199510777,0.01825144225585973,0.010851249551046245,0
1649249367.4056904,0.00714111328125,-0.00787353515625,0.97998046875,0.9817750348457401,-0.54931640625,1.77001953125,2.74658203125,3.517341194878884,0.01829064742923947,0.010951558767924514,0
1649249367.4111001,0.01483154296875,-0.00823974609375,0.98162841796875,0.9817750348457401,-3.5400390625,3.2958984375,-0.6103515625,4.279430698964381,0.018350122270931024,0.011050736762272572,0
1649249367.4164846,0.01116943359375,-0.00750732421875,0.97723388671875,0.9773265500922225,6.53076171875,2.9296875,-0.732421875,3.968224047555595,0.018420104090182576,0.01114970409639776,0
1649249367.422207,0.01116943359375,-0.00750732421875,0.97723388671875,0.9773265500922225,4.33349609375,0.9765625,-1.64794921875,4.069264721870919,0.018479965678125154,0.011248585420727349,0
1649249367.4277704,0.01885986328125,-0.01171875,0.97943115234375,0.9796828087324775,0.06103515625,1.220703125,5.9814453125,13.476750469279015,0.018567655752121937,0.011356770060485856,0
1649249367.433169,0.01885986328125,-0.01171875,0.97943115234375,0.9796828087324775,0.30517578125,-0.3662109375,-2.197265625,2.8188728610242895,0.01867102675169008,0.01145882275767711,0
1649249367.4385335,0.0216064453125,-0.01190185546875,0.98016357421875,0.9804739287038264,1.0986328125,6.7138671875,1.8310546875,1.2038014479563,0.018779604441078845,0.011559308893980874,0
1649249367.4439218,0.0216064453125,-0.01190185546875,0.98016357421875,0.9804739287038264,-2.01416015625,5.859375,0.48828125,4.334785377090992,0.0188960101295379,0.011660798421498697,0
1649249367.4493344,0.018310546875,-0.0113525390625,0.97943115234375,0.9796680756518675,0.30517578125,5.0048828125,-0.18310546875,5.380102751718509,0.019003984714800026,0.011763317073343302,0
1649249367.4546993,0.018310546875,-0.0113525390625,0.97943115234375,0.9803829136544494,-0.9765625,3.23486328125,-2.13623046875,4.59428937171846,0.019102314916381147,0.011865635156736009,0
1649249367.4600456,0.01812744140625,-0.01007080078125,0.98016357421875,0.9803829136544494,-6.2255859375,0.0,1.0986328125,7.891257987741204,0.019199788592231926,0.011968095446063306,0
1649249367.4654553,0.018310546875,-0.00897216796875,0.98236083984375,0.982572437830127,0.0,-1.708984375,-0.48828125,3.4682794543885187,0.01929798767378088,0.012071845582921025,0
1649249367.470886,0.018310546875,-0.00897216796875,0.98236083984375,0.982572437830127,2.0751953125,3.96728515625,1.5869140625,1.6826231386828885,0.01939711240993347,0.01217658416916809,0
1649249367.4767747,0.0150146484375,-0.0098876953125,0.97869873046875,0.9788638369086058,3.11279296875,5.7373046875,4.94384765625,5.072164705643734,0.019490458304062486,0.012285510614302582,0
1649249367.4823048,0.0150146484375,-0.0098876953125,0.97869873046875,0.9788638369086058,0.67138671875,6.34765625,-1.40380859375,4.3110872525415775,0.01957745390245691,0.012398691299637126,0
1649249367.4881773,0.01611328125,-0.00823974609375,0.97760009765625,0.9777676013173277,-2.685546875,-0.1220703125,1.64794921875,7.155965374612811,0.019665160914883018,0.01250926249855626,0
1649249367.4935565,0.01611328125,-0.00823974609375,0.97760009765625,0.9777676013173277,0.3662109375,0.6103515625,7.38525390625,10.11546087075885,0.019757281173951924,0.012621952320139075,0
1649249367.4987931,0.01611328125,-0.00823974609375,0.97760009765625,0.9777676013173277,4.57763671875,-0.1220703125,1.708984375,6.174513820088123,0.019842190551571548,0.012726287571479646,0
1649249367.5040228,0.01611328125,-0.00823974609375,0.97760009765625,0.9816045774223555,-4.638671875,-0.67138671875,-9.70458984375,21.174273618964754,0.019926446839235723,0.012830262599905719,0
1649249367.5092545,0.01702880859375,-0.0047607421875,0.9814453125,0.9816045774223555,-1.89208984375,1.15966796875,-25.0244140625,21.191156623178724,0.02001308491890086,0.012934670147847424,0
1649249367.5145078,0.00823974609375,0.05474853515625,0.98272705078125,0.9842854016263058,0.54931640625,6.28662109375,-17.88330078125,14.03556469376863,0.020079501940927003,0.013040051332386306,0
1649249367.5197675,0.00823974609375,0.05474853515625,0.98272705078125,0.9842854016263058,4.69970703125,-2.44140625,-5.859375,12.046212392116741,0.020122829177125823,0.013145749728688608,0
1649249367.525051,0.01483154296875,-0.03057861328125,0.97906494140625,0.9796546257471874,3.47900390625,1.89208984375,-4.33349609375,13.76204050182253,0.02018380359368166,0.01325227491719769,0
1649249367.530374,0.01483154296875,-0.03057861328125,0.97906494140625,0.9796546257471874,1.03759765625,1.40380859375,-4.82177734375,11.413084621434264,0.020261725432646926,0.013358521111753948,0
1649249367.5356336,0.00897216796875,-0.00238037109375,0.977783203125,0.9778272640287693,4.82177734375,1.64794921875,-15.80810546875,10.193602027497354,0.020324896606325638,0.013466231399304827,0
1649249367.5409389,0.00897216796875,-0.00238037109375,0.977783203125,0.9778272640287693,3.173828125,5.859375,-4.08935546875,7.567867139990862,0.020372605657030363,0.013574434857253945,0
1649249367.5461738,0.01007080078125,-0.00238037109375,0.97906494140625,0.979119628383449,3.5400390625,-2.25830078125,-9.765625,9.732189159608138,0.0204224842673284,0.013681288070065654,0
1649249367.551413,0.01007080078125,-0.00238037109375,0.97906494140625,0.979119628383449,1.0986328125,1.03759765625,-10.7421875,18.945984975933495,0.02047524289082503,0.013788414992535521,0
1649249367.5566456,0.0216064453125,-0.04046630859375,0.97906494140625,0.9801390310058418,-3.60107421875,4.45556640625,-5.79833984375,4.873648627362581,0.02055813851620769,0.013895794523042512,0
1649249367.5618882,0.0216064453125,-0.04046630859375,0.97906494140625,0.9801390310058418,-2.62451171875,0.3662109375,-7.50732421875,14.301124524870676,0.020671427620982286,0.01400388404379364,0
1649249367.5671206,0.0120849609375,0.000732421875,0.97796630859375,0.9780412483464845,-2.99072265625,3.2958984375,-15.93017578125,13.374500523804459,0.020759545870532747,0.014112244758515777,0
1649249367.5723603,0.0120849609375,0.000732421875,0.97796630859375,0.9780412483464845,-2.0751953125,3.47900390625,-11.5966796875,16.576186589018413,0.020822864862566348,0.01422118000239302,0
1649249367.57768,0.0120849609375,0.000732421875,0.97796630859375,0.9780412483464845,-1.46484375,-4.2724609375,-11.8408203125,14.627314278494927,0.02088678604195593,0.014331487768033854,0
1649249367.5828843,0.0120849609375,0.000732421875,0.97796630859375,0.9780412483464845,-1.15966796875,-2.01416015625,-6.04248046875,11.013759698600513,0.020950246216671076,0.014441334435740374,0
1649249367.5882287,0.0120849609375,0.000732421875,0.97796630859375,0.9780412483464845,0.06103515625,-0.54931640625,-2.9296875,7.723781382170853,0.02101314742321847,0.014550542405233338,0
1649249367.5936146,0.029296875,-0.07049560546875,0.97686767578125,0.9798461069277321,-0.3662109375,-1.77001953125,-4.0283203125,6.6002685362198426,0.021125607287103776,0.014665059282304148,0
1649249367.5989645,0.029296875,-0.07049560546875,0.97686767578125,0.9798461069277321,-2.25830078125,2.74658203125,2.25830078125,1.8249409652985904,0.021282404755766038,0.014778543552201888,0
1649249367.6043146,0.0179443359375,-0.01885986328125,0.9803466796875,0.9806922585651072,-1.953125,-3.96728515625,2.99072265625,2.956899783639972,0.02140874387259828,0.014892714249930132,0
1649249367.6096656,0.0179443359375,-0.01885986328125,0.9803466796875,0.9806922585651072,-2.8076171875,2.62451171875,-2.99072265625,3.615528129790011,0.021504812269995455,0.015007587170822602,0
1649249367.6150217,0.0179443359375,-0.01885986328125,0.9803466796875,0.9806922585651072,3.5400390625,2.5634765625,2.86865234375,3.3161810808608703,0.02160089778044494,0.01512299501226934,0
1649249367.6204035,0.0179443359375,-0.01885986328125,0.9803466796875,0.9806922585651072,2.5634765625,1.03759765625,0.54931640625,4.087988781650476,0.02169749668246368,0.015239538120324695,0
1649249367.6257882,0.0179443359375,-0.01885986328125,0.9803466796875,0.9806922585651072,2.99072265625,3.7841796875,3.0517578125,4.850663204664436,0.021793547966808546,0.01535593615005988,0
1649249367.631698,0.0179443359375,-0.01885986328125,0.9803466796875,0.9819757650719826,-1.5869140625,-2.25830078125,-0.1220703125,4.720271313717116,0.021898874525504652,0.015484165261414023,0
1649249367.6371205,0.013916015625,-0.0113525390625,0.9818115234375,0.9819757650719826,-1.953125,6.53076171875,2.38037109375,4.523606924728462,0.021986267653119285,0.015604542458862055,0
1649249367.6424763,0.018310546875,-0.0047607421875,0.98309326171875,0.9832752931045547,-2.38037109375,0.48828125,-15.13671875,10.690913508541259,0.02207279438880505,0.015722838873996753,0
1649249367.6478298,0.018310546875,-0.0047607421875,0.98309326171875,0.9832752931045547,0.3662109375,2.3193359375,-15.31982421875,15.410258941888408,0.022170731688675005,0.015841161158697884,0
1649249367.6532314,0.05419921875,0.04998779296875,0.980712890625,0.9834806091616856,1.52587890625,7.32421875,-8.11767578125,24.909822425561572,0.02236666155658895,0.015961506404618353,0
1649249367.658585,0.05419921875,0.04998779296875,0.980712890625,0.9834806091616856,0.0,2.50244140625,-1.708984375,6.0600257229023,0.022656646418909077,0.016081951662553655,0
1649249367.6639977,-0.00677490234375,-0.0391845703125,0.9796142578125,0.9804210442263456,2.62451171875,-2.74658203125,-5.31005859375,6.121190229189903,0.022784408036386594,0.01620437035104586,0
1649249367.6694083,-0.00677490234375,-0.0391845703125,0.9796142578125,0.9804210442263456,-3.60107421875,-2.3193359375,-5.126953125,10.213317465311262,0.022747833645553328,0.016327273525017533,0
1649249367.6748192,0.0128173828125,-0.00787353515625,0.98089599609375,0.9810113317443223,5.9814453125,2.50244140625,-9.6435546875,10.656011148052427,0.02276421528949868,0.016450659314040092,0
1649249367.6803606,0.0128173828125,-0.00787353515625,0.98089599609375,0.9810113317443223,0.244140625,0.3662109375,-9.6435546875,11.339077094768978,0.02283369733777363,0.01657425070600957,0
1649249367.6860807,0.016845703125,0.00018310546875,0.9803466796875,0.9804914194503153,0.8544921875,3.35693359375,-7.14111328125,11.51673720228251,0.02291889650223311,0.01670566261558755,0
1649249367.6914625,0.002197265625,-0.0230712890625,0.98016357421875,0.9804375271176167,-4.8828125,3.662109375,0.244140625,2.6952395221947776,0.02297178299340885,0.01683311107428415,0
1649249367.696736,0.002197265625,-0.0230712890625,0.98016357421875,0.9804375271176167,-1.8310546875,0.06103515625,-5.7373046875,1.8573149480838549,0.022983346876571886,0.016954038591310807,0
1649249367.701992,0.00201416015625,-0.0369873046875,0.98016357421875,0.9808632676242168,-3.47900390625,-1.77001953125,-0.48828125,4.384771742104934,0.02299448365374701,0.017075623270753935,0
1649249367.707216,0.00201416015625,-0.0369873046875,0.98016357421875,0.9808632676242168,-1.5869140625,-2.01416015625,-4.150390625,8.093777233063236,0.02300501136778621,0.01719583951275226,0
1649249367.7124364,0.01336669921875,-0.0179443359375,0.9832763671875,0.9835309258532188,3.662109375,1.28173828125,-2.9296875,7.017981407496387,0.023045165922667366,0.017316061948067025,0
1649249367.7176905,0.01336669921875,-0.0179443359375,0.9832763671875,0.9835309258532188,4.150390625,2.86865234375,-0.244140625,7.103978299042273,0.02311501254007453,0.017436665107896154,0
1649249367.7235522,0.01336669921875,-0.0179443359375,0.9832763671875,0.9835309258532188,-6.53076171875,-4.7607421875,0.1220703125,2.171685409504052,0.023193760083813686,0.01757307507860122,0
1649249367.72878,0.01336669921875,-0.0179443359375,0.9832763671875,0.9835309258532188,3.96728515625,1.46484375,9.765625,4.01674399017893,0.023263527029484976,0.017694316043667693,0
1649249367.7339814,0.01446533203125,-0.012451171875,0.9788818359375,0.9790678864308674,-0.9765625,8.85009765625,7.38525390625,6.026738787271576,0.023336187652603257,0.0178159731471511,0
1649249367.739566,0.01446533203125,-0.012451171875,0.9788818359375,0.9805158854549211,1.0986328125,5.43212890625,9.94873046875,3.3419186577157767,0.023414516886987258,0.01794254980939389,0
1649249367.7448523,0.0157470703125,-0.0091552734375,0.9803466796875,0.9805158854549211,7.50732421875,1.64794921875,2.74658203125,12.738082439669133,0.023496885456552263,0.01807044513739071,0
1649249367.7500732,0.0157470703125,-0.0091552734375,0.9803466796875,0.9805158854549211,1.8310546875,2.13623046875,0.732421875,4.549883315927218,0.02357911419676384,0.018193356893954724,0
1649249367.7552795,0.0157470703125,-0.0091552734375,0.9803466796875,0.9805158854549211,-4.21142578125,3.0517578125,-0.30517578125,6.479220352277526,0.023661162726057228,0.018316427254599938,0
1649249367.7615592,0.01116943359375,-0.00823974609375,0.98016357421875,0.9802618435335376,-2.25830078125,0.54931640625,4.94384765625,8.516536978787414,0.0237313305187854,0.018439973263935244,0
1649249367.7670016,0.01116943359375,-0.00823974609375,0.98016357421875,0.9802618435335376,4.0283203125,-0.6103515625,8.1787109375,6.851451163871679,0.023803252835932653,0.018593015822038355,0
1649249367.7722654,0.01409912109375,-0.0091552734375,0.9796142578125,0.9797584898110692,-1.708984375,-2.685546875,4.33349609375,5.856195222808097,0.0238704018338467,0.01871970443472579,0
1649249367.777489,0.01409912109375,-0.0091552734375,0.9796142578125,0.9797584898110692,3.96728515625,-1.3427734375,2.62451171875,3.195468777516705,0.02394405549421208,0.018844595545922677,0
1649249367.7827191,0.01226806640625,-0.01043701171875,0.9803466796875,0.9804789895970597,3.11279296875,0.732421875,1.46484375,6.067705004340529,0.02401301131612854,0.018970013509389948,0
1649249367.7880814,0.01226806640625,-0.01043701171875,0.9803466796875,0.9804789895970597,6.89697265625,3.2958984375,-5.67626953125,7.4074152581076165,0.024077096641121898,0.01909561888579368,0
1649249367.793449,0.0428466796875,0.00018310546875,0.98236083984375,0.9832948139527503,6.40869140625,7.14111328125,-2.197265625,1.3330279338282198,0.02422673271212261,0.019226763375263224,0
1649249367.7987924,0.0428466796875,0.00018310546875,0.98236083984375,0.9849905065197609,-4.94384765625,-4.57763671875,-7.01904296875,2.0325715094417376,0.024456202241708525,0.019357126454318523,0
1649249367.8041804,0.00311279296875,-0.010986328125,0.98492431640625,0.9849905065197609,-1.8310546875,-7.99560546875,0.9765625,5.027904132475335,0.02458013808791293,0.01948935948447041,0
1649249367.809555,-0.0098876953125,-0.017578125,0.9818115234375,0.9820186477617281,-5.31005859375,1.953125,-7.01904296875,6.351176532875275,0.024562092788983136,0.019620261196523738,0
1649249367.8149402,-0.0098876953125,-0.017578125,0.9818115234375,0.9820186477617281,-2.8076171875,0.30517578125,-1.5869140625,6.185063142353957,0.024508534785127267,0.019753159954918005,0
1649249367.8203266,0.017578125,-0.0106201171875,0.97760009765625,0.9778157946694773,-4.8828125,-0.48828125,2.685546875,6.906957909391317,0.024529106987756677,0.019884361798173836,0
1649249367.8256996,0.017578125,-0.0106201171875,0.97760009765625,0.9778157946694773,-5.92041015625,-2.13623046875,0.1220703125,3.5473977262500953,0.02462412005115766,0.020017203004986602,0
1649249367.8310986,0.017578125,-0.0106201171875,0.97760009765625,0.9778157946694773,0.48828125,-2.99072265625,-4.94384765625,0.5758045124546267,0.0247189990041079,0.020150369183724738,0
1649249367.8364522,0.017578125,-0.0106201171875,0.97760009765625,0.9778157946694773,-5.615234375,4.150390625,-6.77490234375,5.614570910192935,0.024813157113385387,0.020283029924516503,0
1649249367.8418062,0.01922607421875,-0.00677490234375,0.98089599609375,0.9811077904004137,1.77001953125,-3.2958984375,1.8310546875,6.452718006073782,0.024911759595852345,0.02041624842490696,0
1649249367.8471591,0.01922607421875,-0.00677490234375,0.98089599609375,0.9811077904004137,4.08935546875,0.1220703125,1.52587890625,5.623189846816905,0.02501462126383558,0.02054980431242625,0
1649249367.8525188,0.01556396484375,-0.01116943359375,0.97906494140625,0.9792523437497029,3.41796875,-3.5400390625,-1.03759765625,6.784243630464412,0.02510781929595396,0.020684075872649303,0
1649249367.8578606,0.01556396484375,-0.01116943359375,0.97906494140625,0.9805797916771836,-5.4931640625,-5.67626953125,-3.84521484375,3.698549171763456,0.025191158769303,0.02081874240473277,0
1649249367.8632362,0.01885986328125,-0.01007080078125,0.9803466796875,0.9805797916771836,1.52587890625,-0.1220703125,0.244140625,6.227679928937179,0.025283823066274635,0.020954614240063396,0
1649249367.869203,0.02105712890625,-0.008056640625,0.98162841796875,0.9818872965365046,-3.72314453125,-1.03759765625,0.48828125,6.8386617409322765,0.025399815684068017,0.021101893070851335,0
1649249367.8746598,0.02105712890625,-0.008056640625,0.98162841796875,0.9818872965365046,1.3427734375,1.3427734375,-1.46484375,4.1852496918783615,0.025517559377476573,0.021244248655629933,0
1649249367.8800573,0.00860595703125,-0.0076904296875,0.98199462890625,0.9820624503594085,-0.30517578125,0.48828125,-3.662109375,8.547973088050288,0.02559754984395113,0.021382087363279394,0
1649249367.8854167,0.00860595703125,-0.0076904296875,0.98199462890625,0.9820624503594085,-2.685546875,-0.30517578125,4.08935546875,6.11022580361686,0.025643721950473264,0.02151954548972778,0
1649249367.8909438,0.0142822265625,-0.008056640625,0.9803466796875,0.9804838110994228,-0.48828125,-0.48828125,-4.150390625,5.7845101314445735,0.02570662715152139,0.021660675257449254,0
1649249367.8961904,0.0142822265625,-0.008056640625,0.9803466796875,0.9804838110994228,4.08935546875,-1.15966796875,-1.64794921875,4.696138686931481,0.025783008029975463,0.021798357696151377,0
1649249367.9014282,0.0216064453125,-0.00933837890625,0.978515625,0.9787986882749585,1.40380859375,5.126953125,4.57763671875,5.707358265410625,0.025877027139358688,0.021933693729600703,0
1649249367.9066596,0.0216064453125,-0.00933837890625,0.978515625,0.979919893590771,0.18310546875,-4.21142578125,-3.96728515625,5.393933372872485,0.025990146248659585,0.02206946730018923,0
1649249367.9118896,0.00897216796875,-0.01263427734375,0.97979736328125,0.979919893590771,-2.25830078125,1.77001953125,-5.7373046875,7.371369227854855,0.026070064814120997,0.022205528976612827,0
1649249367.917329,0.00897216796875,-0.01263427734375,0.97979736328125,0.979919893590771,-2.01416015625,2.01416015625,-2.50244140625,6.8737076498344365,0.026116986664419528,0.022341990589097496,0
1649249367.922906,0.00897216796875,-0.01263427734375,0.97979736328125,0.979919893590771,7.14111328125,1.220703125,5.7373046875,3.3486002744983403,0.02616813971690135,0.022491037275646268,0
1649249367.9281664,0.01556396484375,-0.0069580078125,0.98089599609375,0.9810441407129071,-0.1220703125,-5.06591796875,-5.4931640625,6.371672753103218,0.02623372845846461,0.022631115282863247,0
1649249367.9334219,0.01556396484375,-0.0069580078125,0.98089599609375,0.9810441407129071,3.173828125,0.67138671875,-1.220703125,5.39151557531816,0.026315509421692695,0.022769175453709326,0
1649249367.9387012,0.0146484375,-0.00787353515625,0.97979736328125,0.9799384890746653,-0.91552734375,-6.53076171875,-0.30517578125,5.5357238004752105,0.02639449969137786,0.022906985674411958,0
1649249367.9439247,0.0146484375,-0.00787353515625,0.97979736328125,0.9799384890746653,-0.8544921875,2.0751953125,-0.9765625,8.572995526556346,0.02647180877829669,0.023046490179126532,0
1649249367.9491591,0.010986328125,-0.0087890625,0.98236083984375,0.9824615853476496,-0.67138671875,3.84521484375,-2.9296875,6.353522304527883,0.02653882165759569,0.023185067415639277,0
1649249367.954378,0.010986328125,-0.0087890625,0.98236083984375,0.9824615853476496,3.41796875,-0.06103515625,-2.197265625,13.367813969640643,0.02659622983628651,0.023323893895979213,0
1649249367.9596016,0.00933837890625,-0.01007080078125,0.9810791015625,0.981175228932964,1.953125,1.28173828125,5.0048828125,4.154876080350954,0.026649274252122268,0.023462856620308153,0
1649249367.9648318,0.00933837890625,-0.01007080078125,0.9810791015625,0.981175228932964,0.8544921875,-4.94384765625,0.06103515625,4.1901423814294185,0.026698158035287634,0.02360248601094154,0
1649249367.9707115,0.02288818359375,-0.0091552734375,0.97906494140625,0.9793752332332896,0.0,4.21142578125,-3.662109375,8.948678128960573,0.02678242584806867,0.023742330024093834,0
1649249367.9762504,0.02288818359375,-0.0091552734375,0.97906494140625,0.9793752332332896,-1.89208984375,3.72314453125,0.42724609375,6.457623370945589,0.02692263173230458,0.023906820252319126,0
1649249367.981481,0.02288818359375,-0.0091552734375,0.97906494140625,0.9793752332332896,0.18310546875,1.40380859375,3.72314453125,3.686947829721425,0.027043869195040315,0.024049749061378127,0
1649249367.9871597,-0.0003662109375,-0.0113525390625,0.982177734375,0.98224340983059,3.2958984375,-3.2958984375,-2.99072265625,4.743888562456798,0.02710324491636129,0.024192497825961435,0
1649249367.9928956,-0.0003662109375,-0.0113525390625,0.982177734375,0.98224340983059,2.8076171875,1.28173828125,-0.1220703125,5.442748244533192,0.02710106614540564,0.02435374202502704,0
1649249368.0017345,-0.0003662109375,-0.0113525390625,0.982177734375,0.98224340983059,0.6103515625,2.197265625,-1.89208984375,1.896023506714974,0.027098881000711117,0.02451544490555571,0
1649249368.0080266,0.0150146484375,-0.009521484375,0.978515625,0.9786771309791323,2.38037109375,0.18310546875,0.79345703125,3.1103985122658466,0.027162659644091036,0.024751693190011262,0
1649249368.013781,0.0150146484375,-0.009521484375,0.978515625,0.9786771309791323,3.41796875,3.2958984375,-0.1220703125,6.0016524304418235,0.02725342116173124,0.024916162111762143,0
1649249368.019456,0.01300048828125,-0.00732421875,0.98199462890625,0.9821079920643007,2.0751953125,0.6103515625,-2.685546875,3.613466825101485,0.027334377969964407,0.02507390733465865,0
1649249368.0256684,0.01300048828125,-0.00732421875,0.98199462890625,0.981424900810583,-1.15966796875,2.50244140625,-4.94384765625,5.020118411859908,0.02741010327008553,0.025233345279687867,0
1649249368.0314393,0.0128173828125,-0.012451171875,0.98126220703125,0.981424900810583,2.8076171875,7.568359375,5.18798828125,3.3139335841060125,0.027489585649163928,0.025402358358656348,0
1649249368.036897,0.01556396484375,-0.0098876953125,0.9788818359375,0.9790554898720608,3.41796875,-2.44140625,-6.28662109375,6.146394790175967,0.027569411708100233,0.02555721861480937,0
1649249368.0422697,0.01556396484375,-0.0098876953125,0.9788818359375,0.9790554898720608,-1.52587890625,8.4228515625,1.46484375,1.241881710777332,0.027653448800265323,0.025706305581554383,0
1649249368.047654,0.01519775390625,-0.0076904296875,0.9788818359375,0.9790300113688772,0.67138671875,10.92529296875,2.5634765625,8.040209111037449,0.02773594715836225,0.025854851709932444,0
1649249368.0532787,0.01519775390625,-0.0076904296875,0.9788818359375,0.9790300113688772,-0.3662109375,1.64794921875,-0.3662109375,5.961794590358269,0.027818680864584167,0.026006066169071307,0
1649249368.0589075,0.01446533203125,-0.0091552734375,0.98016357421875,0.9803130607554735,-0.67138671875,2.86865234375,-3.5400390625,3.2652382507556776,0.02790195284615038,0.026162488450724483,0
1649249368.0646732,0.01446533203125,-0.0091552734375,0.98016357421875,0.9808847164312313,3.2958984375,-3.23486328125,0.244140625,3.4896954001276383,0.027984458582068328,0.02632186776855615,0
1649249368.0704262,0.0142822265625,-0.01153564453125,0.980712890625,0.9808847164312313,-6.16455078125,-1.15966796875,1.03759765625,4.634654664689851,0.02806701786175836,0.02648284037795788,0
1649249368.0761971,0.01483154296875,-0.0128173828125,0.97979736328125,0.9799934352136681,2.01416015625,-0.79345703125,-1.28173828125,3.506202787193621,0.028153356768598314,0.02664956580602406,0
1649249368.0824575,0.01483154296875,-0.0128173828125,0.97979736328125,0.9799934352136681,0.30517578125,-0.8544921875,2.197265625,4.500489234820746,0.028236957608896773,0.026808493224317147,0
1649249368.0885117,0.01446533203125,-0.009521484375,0.98089599609375,0.9810488569119418,-3.23486328125,-0.3662109375,-4.45556640625,4.381797142528703,0.02832935062906472,0.026986885358558643,0
1649249368.0941014,0.01446533203125,-0.009521484375,0.98089599609375,0.9781145713024733,-5.18798828125,-5.859375,0.48828125,7.401881140593881,0.02841566384449834,0.027156181322469445,0
1649249368.099653,0.01373291015625,-0.01007080078125,0.97796630859375,0.9781145713024733,-2.86865234375,-3.2958984375,-2.38037109375,10.234996980593058,0.028492813456978183,0.02731188134594726,0
1649249368.1052794,0.0128173828125,-0.01263427734375,0.9781494140625,0.9783149730516103,0.732421875,-4.45556640625,-0.9765625,5.373867359144321,0.02856721725402167,0.027471784777118938,0
1649249368.1108582,0.0128173828125,-0.01263427734375,0.9781494140625,0.9783149730516103,1.3427734375,4.39453125,-5.7373046875,13.995163022352832,0.02864282944210572,0.027640531270625643,0
1649249368.1158657,0.0128173828125,-0.01263427734375,0.9781494140625,0.9783149730516103,-1.77001953125,-1.03759765625,-1.77001953125,4.145001671472081,0.028708430494589265,0.027787296919593987,0
1649249368.120768,0.0128173828125,-0.01263427734375,0.9781494140625,0.9783149730516103,4.33349609375,-2.9296875,1.64794921875,4.3677467438512805,0.02877221939706942,0.027930330315103526,0
1649249368.1256123,0.0128173828125,-0.01263427734375,0.9781494140625,0.9783149730516103,2.685546875,1.46484375,4.21142578125,2.6841593539179716,0.028834330609242897,0.02806990688476542,0
1649249368.1305006,0.0128173828125,-0.01263427734375,0.9781494140625,0.9783149730516103,-1.220703125,1.28173828125,-1.708984375,6.428714534892374,0.028896994939714205,0.02821103143864932,0
1649249368.1353364,0.0128173828125,-0.01263427734375,0.9781494140625,0.9783149730516103,-2.50244140625,2.01416015625,-0.1220703125,6.7694014477928555,0.028958999195310753,0.028350970999658685,0
1649249368.1401882,0.0128173828125,-0.01263427734375,0.9781494140625,0.9783149730516103,-0.30517578125,1.953125,0.8544921875,7.538274219789171,0.02902113791060401,0.028491514950205864,0
1649249368.145054,0.0128173828125,-0.01263427734375,0.9781494140625,0.9783149730516103,-3.11279296875,0.91552734375,-3.2958984375,4.78299150353151,0.029083551657095086,0.02863298421182003,0
1649249368.1499548,0.0128173828125,-0.01263427734375,0.9781494140625,0.9783149730516103,1.0986328125,0.79345703125,-0.18310546875,2.773576115112735,0.029146267937903758,0.02877544534333889,0
1649249368.1552722,0.0164794921875,-0.00860595703125,0.980712890625,0.9808890915884552,3.35693359375,2.8076171875,1.953125,7.879447195975506,0.02922421614493942,0.02893074772893671,0
1649249368.1604393,0.0164794921875,-0.00860595703125,0.980712890625,0.9808890915884552,3.5400390625,4.8828125,7.50732421875,4.1310476706586226,0.029304085204785224,0.029072578567835988,0
1649249368.1655107,0.0164794921875,-0.00677490234375,0.98236083984375,0.9825224132929706,1.708984375,2.50244140625,-5.18798828125,4.702876619896421,0.02939219734253129,0.029229496477506594,0
1649249368.1703734,0.0164794921875,-0.00677490234375,0.98236083984375,0.9825224132929706,-0.30517578125,0.18310546875,-7.9345703125,8.148821974376641,0.02947307223075768,0.02937394031239512,0
1649249368.1753194,0.0479736328125,-0.0047607421875,0.98236083984375,0.9835430614721057,1.15966796875,-2.197265625,-2.9296875,2.8373142820237938,0.029629168413521256,0.029517077424169706,0
1649249368.1805348,0.0479736328125,-0.0047607421875,0.98236083984375,0.9835430614721057,-2.99072265625,5.0048828125,-4.150390625,5.369012602844054,0.029875321422878187,0.02966973637852413,0
1649249368.185481,0.0479736328125,-0.0047607421875,0.98236083984375,0.9835430614721057,-4.57763671875,0.67138671875,-7.62939453125,7.990944938237009,0.030121325740765315,0.029823564985987448,0
1649249368.1903417,0.0479736328125,-0.0047607421875,0.98236083984375,0.9835430614721057,0.48828125,1.3427734375,1.40380859375,4.000946439592868,0.03035469128371915,0.029970656395593258,0
1649249368.1951816,0.0479736328125,-0.0047607421875,0.98236083984375,0.9835430614721057,4.2724609375,1.220703125,1.3427734375,4.440071650262015,0.0305871875534649,0.030118328759246853,0
1649249368.2000568,0.0479736328125,-0.0047607421875,0.98236083984375,0.9835430614721057,1.220703125,0.0,-3.72314453125,1.9077758310654032,0.030820541658613365,0.03026767898414529,0
1649249368.2049139,0.01336669921875,-0.0113525390625,0.98126220703125,0.981418905329936,2.74658203125,6.591796875,-3.72314453125,5.735356426188236,0.030969691404607147,0.030417922669842667,0
1649249368.2097788,0.01336669921875,-0.0113525390625,0.98126220703125,0.981418905329936,0.42724609375,4.39453125,-5.06591796875,9.513851921368607,0.031034623869345523,0.030568524286190314,0
1649249368.2146251,0.021240234375,-0.00860595703125,0.9774169921875,0.9776856277298895,2.13623046875,6.04248046875,-3.35693359375,2.483763421554664,0.031118519385927357,0.030719198429175566,0
1649249368.2194967,0.021240234375,-0.00860595703125,0.9774169921875,0.9776856277298895,2.13623046875,1.77001953125,-3.60107421875,4.775196531755041,0.031221887111314572,0.030870891341446792,0
1649249368.2243607,0.00714111328125,-0.01116943359375,0.98162841796875,0.9817179343933429,2.44140625,1.28173828125,3.173828125,7.028854809867814,0.03129085947875865,0.03102280985426623,0
1649249368.2292285,0.00714111328125,-0.01116943359375,0.98162841796875,0.9817179343933429,0.0,4.150390625,2.86865234375,2.478508362334833,0.03132564476982225,0.031175316420111572,0
1649249368.2340796,0.00384521484375,-0.0146484375,0.98236083984375,0.9824775733098969,0.18310546875,2.25830078125,2.0751953125,4.468923952144892,0.031352328034699894,0.03132754680421336,0
1649249368.2389307,0.00384521484375,-0.0146484375,0.98236083984375,0.9824775733098969,-0.1220703125,4.08935546875,-1.03759765625,1.9281700438148577,0.031370966898975894,0.031479565745770356,0
1649249368.2437804,0.01611328125,-0.01300048828125,0.98455810546875,0.984775768168778,0.0,-1.8310546875,-8.85009765625,7.174681968153482,0.031419393912074156,0.03163191939061204,0
1649249368.2486403,0.01611328125,-0.01300048828125,0.98455810546875,0.984775768168778,-2.44140625,-0.42724609375,-1.0986328125,3.9479886789053293,0.031497726289671846,0.031784850613636596,0
1649249368.253483,0.01446533203125,-0.01171875,0.98291015625,0.9830864408543819,2.44140625,-1.64794921875,-0.54931640625,2.1879209385906884,0.03157175047817873,0.03193752813352127,0
1649249368.2583296,0.01446533203125,-0.01171875,0.98291015625,0.9830864408543819,-2.01416015625,-0.91552734375,-5.31005859375,4.9363067005848995,0.03164185086643556,0.032090697725059056,0
1649249368.263207,0.01446533203125,-0.01171875,0.98291015625,0.9830864408543819,-1.64794921875,-1.46484375,3.2958984375,2.9575296483363567,0.03171239615039667,0.03224518236932057,0
1649249368.2680566,0.01446533203125,-0.01171875,0.98291015625,0.9830864408543819,-0.91552734375,0.3662109375,-8.48388671875,3.186128695346237,0.03178255171951605,0.032399154784001266,0
1649249368.2729115,0.01446533203125,-0.01171875,0.98291015625,0.9830864408543819,2.25830078125,1.28173828125,0.244140625,3.6067594488999406,0.03185282454796834,0.03255372565283031,0
1649249368.2777581,0.01446533203125,-0.01171875,0.98291015625,0.9830864408543819,2.38037109375,6.89697265625,-0.42724609375,7.078762589931323,0.03192289389698999,0.032708188857171985,0
1649249368.2826424,0.01593017578125,-0.01025390625,0.985107421875,0.9852895745551227,0.54931640625,-0.244140625,-0.732421875,7.881338112056477,0.03199656903598225,0.03286312212378978,0
1649249368.2875345,0.01593017578125,-0.01025390625,0.985107421875,0.9852895745551227,-0.18310546875,0.54931640625,-0.79345703125,1.5939410226074946,0.032074956987344194,0.03302076117732469,0
1649249368.292391,0.017578125,-0.01171875,0.98162841796875,0.981855727968172,-4.57763671875,2.9296875,-2.13623046875,5.125863095621251,0.032156520697753876,0.033177109232073704,0
1649249368.297229,0.017578125,-0.01171875,0.98162841796875,0.981855727968172,-0.79345703125,3.662109375,2.38037109375,2.8504136789149457,0.03224161796970293,0.033332987800441985,0
1649249368.302062,0.01812744140625,-0.01171875,0.9796142578125,0.9798520435979274,-0.79345703125,-9.8876953125,-0.54931640625,4.515776687767069,0.03232792144990526,0.03348905803060079,0
1649249368.3069015,0.01812744140625,-0.01171875,0.9796142578125,0.9798520435979274,-0.8544921875,4.08935546875,2.8076171875,5.904343029754165,0.03241560021706391,0.033645633689405895,0
1649249368.3117752,0.01702880859375,-0.01153564453125,0.98162841796875,0.9818438788222417,1.3427734375,4.7607421875,3.173828125,7.726674726112821,0.03250131774984766,0.033803913313769945,0
1649249368.3166175,0.01702880859375,-0.01153564453125,0.98162841796875,0.9818438788222417,-3.41796875,5.79833984375,2.13623046875,6.0600257229023,0.032583715132204816,0.033961376952831544,0
1649249368.3214695,0.01702880859375,-0.01080322265625,0.978515625,0.9787234125691607,1.77001953125,3.72314453125,-1.0986328125,4.5650053592078015,0.03266624243406113,0.034119488511680104,0
1649249368.3268895,0.01702880859375,-0.01080322265625,0.978515625,0.9787234125691607,-2.38037109375,8.30078125,-0.54931640625,7.155965374612811,0.032757242923253216,0.03429429725239118,0
1649249368.3317847,0.01702880859375,-0.00897216796875,0.97833251953125,0.9785218438504812,-1.64794921875,-2.5634765625,1.89208984375,3.015532062264557,0.032841881416970864,0.03445732131372777,0
1649249368.336678,0.01702880859375,-0.00897216796875,0.97833251953125,0.9785218438504812,1.708984375,0.6103515625,7.568359375,2.9328646915854404,0.032924770057434216,0.03461738266794786,0
1649249368.3415308,0.04193115234375,-0.02032470703125,0.97723388671875,0.9783442055862628,2.8076171875,-3.0517578125,0.30517578125,4.471840596683155,0.03306867310311645,0.0347784522703502,0
1649249368.3463807,0.04193115234375,-0.02032470703125,0.97723388671875,0.9783442055862628,-1.40380859375,-4.5166015625,-3.2958984375,10.881389012727809,0.033272075437707826,0.034939357258378205,0
1649249368.3512955,0.041748046875,-0.0142822265625,0.98052978515625,0.9815220532377362,2.62451171875,1.64794921875,-1.15966796875,7.6746703452970095,0.0334776272502495,0.03510332300497025,0
1649249368.356142,0.041748046875,-0.0142822265625,0.98052978515625,0.9815220532377362,-2.9296875,-0.54931640625,2.0751953125,12.140013788614503,0.033679952248348854,0.03526605705076999,0
1649249368.3610592,-0.00439453125,-0.0029296875,0.98126220703125,0.9812764207508476,4.2724609375,2.8076171875,-5.67626953125,14.363116867456863,0.0337714802735718,0.03543132038082702,0
1649249368.3659103,-0.00439453125,-0.0029296875,0.98126220703125,0.9812764207508476,4.39453125,-0.732421875,1.15966796875,2.7628101312881532,0.03375009175215382,0.035595636721670834,0
1649249368.3707564,-0.00494384765625,-0.008056640625,0.98236083984375,0.982406316524037,2.0751953125,4.82177734375,1.708984375,3.559453933550618,0.03372745105298236,0.035759234575518675,0
1649249368.375896,-0.00494384765625,-0.008056640625,0.98236083984375,0.982406316524037,0.6103515625,-2.197265625,-8.9111328125,6.9510441784706725,0.03370349151373375,0.03592263102574661,0
1649249368.3810132,0.00823974609375,-0.0106201171875,0.98052978515625,0.980621914849616,2.5634765625,1.52587890625,-0.244140625,4.922703869977835,0.033712282885971945,0.03610248179661241,0
1649249368.3859034,0.00823974609375,-0.0106201171875,0.98052978515625,0.980621914849616,7.62939453125,-5.0048828125,0.1220703125,6.34090357845784,0.03375316430901876,0.03626984638870298,0
1649249368.3907547,0.00823974609375,-0.0106201171875,0.98052978515625,0.980621914849616,3.90625,0.79345703125,-1.28173828125,8.63383222400244,0.033793145987147,0.03643372369792372,0
1649249368.3955965,0.00823974609375,-0.0106201171875,0.98052978515625,0.980621914849616,-1.5869140625,2.50244140625,-2.50244140625,6.888325088982763,0.033833064801001456,0.03659753688399883,0
1649249368.4004529,0.0150146484375,-0.00750732421875,0.9810791015625,0.9812227082101745,2.86865234375,3.47900390625,-5.06591796875,9.040829300376867,0.033889475074829534,0.03676181753269922,0
1649249368.405303,0.0150146484375,-0.00750732421875,0.9810791015625,0.9812227082101745,3.662109375,6.8359375,-2.25830078125,10.261714323962781,0.03396235205582343,0.036926484602220866,0
1649249368.410184,0.00421142578125,-0.0076904296875,0.978515625,0.9785549075984596,0.1220703125,3.2958984375,4.39453125,6.474619041194001,0.034009270086244214,0.03709235801970208,0
1649249368.4150307,0.00421142578125,-0.0076904296875,0.978515625,0.9785549075984596,6.34765625,4.2724609375,4.69970703125,3.3043646688572177,0.03402968508453341,0.03725726834052435,0
1649249368.4200568,0.00970458984375,-0.0106201171875,0.98052978515625,0.9806353172977574,4.82177734375,3.173828125,0.244140625,6.552401902338834,0.03406360830558697,0.0374232600946431,0
1649249368.4251094,0.00970458984375,-0.0106201171875,0.98052978515625,0.9806353172977574,-2.38037109375,-4.08935546875,-0.67138671875,0.7672000176987631,0.03411356920696562,0.03759875402570157,0
1649249368.4303732,0.01116943359375,-0.01171875,0.97998046875,0.9801141793076138,-4.21142578125,-5.67626953125,0.48828125,4.443007235144872,0.034168059697549324,0.037776999464009225,0
1649249368.4352586,0.01116943359375,-0.01171875,0.97998046875,0.9801141793076138,0.3662109375,3.23486328125,-5.37109375,6.459930489050975,0.034223793634737376,0.03794763243415057,0
1649249368.4401,0.01116943359375,-0.01171875,0.97998046875,0.9801141793076138,-1.3427734375,-7.568359375,-0.91552734375,5.286504309944453,0.034277871185622644,0.03811346010275865,0
1649249368.445553,0.01116943359375,-0.01171875,0.97998046875,0.9801141793076138,3.23486328125,0.18310546875,-0.54931640625,4.135103683094317,0.0343387447137502,0.038300440734449125,0
1649249368.4503987,0.01666259765625,-0.006591796875,0.984375,0.9845380818290856,-1.28173828125,5.92041015625,-4.94384765625,3.372986298742212,0.03440617974410998,0.03846700479246757,0
1649249368.4552295,0.01666259765625,-0.006591796875,0.984375,0.9845380818290856,-2.3193359375,-0.54931640625,5.0048828125,7.862645388352158,0.03448672568629263,0.03863351676413217,0
1649249368.460068,0.01922607421875,-0.00677490234375,0.97686767578125,0.9770803432767919,-0.54931640625,-2.50244140625,1.77001953125,7.514515975369651,0.03457351025281241,0.03880051549455618,0
1649249368.4648995,0.01922607421875,-0.00677490234375,0.97686767578125,0.9770803432767919,-1.8310546875,-0.54931640625,-0.244140625,4.605627314432002,0.034666457046114374,0.0389678828118656,0
1649249368.4697404,0.012451171875,-0.01007080078125,0.9788818359375,0.979012819853656,-1.3427734375,-2.44140625,-7.26318359375,8.561690090328842,0.0347430614856421,0.039135734437896426,0
1649249368.475129,0.012451171875,-0.01007080078125,0.9788818359375,0.979012819853656,-0.91552734375,2.62451171875,5.37109375,3.561546499241982,0.03480469239730155,0.039307858456370505,0
1649249368.480094,0.01318359375,-0.01116943359375,0.98236083984375,0.9825127902727211,0.732421875,2.44140625,6.2255859375,6.374010981715174,0.03487370689254021,0.03949544821733702,0
1649249368.48499,0.01318359375,-0.01116943359375,0.98236083984375,0.9825127902727211,1.5869140625,-1.3427734375,2.3193359375,6.039088674787127,0.03493795418035006,0.0396655539550625,0
1649249368.490092,0.013916015625,-0.0106201171875,0.97943115234375,0.979587578811286,-2.5634765625,-1.5869140625,1.15966796875,2.727527218201212,0.03500491327577038,0.03983837235517883,0
1649249368.4954393,0.013916015625,-0.0106201171875,0.97943115234375,0.979587578811286,-1.89208984375,0.6103515625,1.89208984375,6.156387211388796,0.035078210923529696,0.040022941282444345,0
1649249368.5004082,0.015380859375,-0.0113525390625,0.9818115234375,0.9819976163580764,2.74658203125,-1.40380859375,-2.44140625,8.694457472228452,0.035154842473275494,0.040206649194130376,0
1649249368.5052705,0.015380859375,-0.0113525390625,0.9818115234375,0.9819976163580764,-2.5634765625,-5.79833984375,2.38037109375,5.34954952054698,0.03522988198528765,0.04037834426160707,0
1649249368.510164,0.0142822265625,-0.00933837890625,0.97943115234375,0.9795797923076942,5.79833984375,0.06103515625,1.220703125,9.441923645766897,0.035302287484228145,0.040550508308616756,0
1649249368.5150356,0.0142822265625,-0.00933837890625,0.97943115234375,0.9795797923076942,1.220703125,2.99072265625,-3.173828125,6.995385147409376,0.03537192616931861,0.040722808449883185,0
1649249368.519885,0.01629638671875,-0.00823974609375,0.9796142578125,0.9797844455518324,-2.62451171875,1.8310546875,-5.0048828125,4.293770101797255,0.035446190944639966,0.040894800930633586,0
1649249368.5247364,0.01629638671875,-0.00823974609375,0.9796142578125,0.9797844455518324,3.2958984375,-2.9296875,4.08935546875,6.384230662771498,0.03552520753873978,0.04106686110211335,0
1649249368.5295842,0.01446533203125,-0.01080322265625,0.98199462890625,0.9821605808885115,6.2255859375,2.50244140625,2.38037109375,1.8147056576316536,0.03559974099334795,0.041239191789030016,0
1649249368.5344448,0.01446533203125,-0.01080322265625,0.98199462890625,0.9821605808885115,2.0751953125,0.1220703125,-5.2490234375,0.4139605702591106,0.03567010349070188,0.04141252774264277,0
1649249368.5392954,0.01446533203125,-0.01080322265625,0.98199462890625,0.9821605808885115,-1.28173828125,-1.5869140625,-2.50244140625,3.435905260018938,0.03574023146938998,0.041585626515535545,0
1649249368.5445037,0.01446533203125,-0.01080322265625,0.98199462890625,0.9821605808885115,-0.8544921875,-4.5166015625,-4.82177734375,6.254540224840556,0.035814698043395765,0.041769806541356286,0
1649249368.5494049,0.01812744140625,-0.0179443359375,0.97906494140625,0.9793971425397353,3.60107421875,0.67138671875,-7.75146484375,11.109907446011357,0.03589555629878305,0.04194770996742114,0
1649249368.5542662,0.01812744140625,-0.0179443359375,0.97906494140625,0.9793971425397353,0.244140625,-0.9765625,-14.2822265625,18.976830290172664,0.0359836326824734,0.042122330833272666,0
1649249368.5591373,0.00531005859375,-0.0234375,0.98162841796875,0.9819225346697926,-4.39453125,1.64794921875,-15.5029296875,18.352917286252637,0.03604070506116841,0.04229771644517506,0
1649249368.5639892,0.00531005859375,-0.0234375,0.98162841796875,0.9819225346697926,-4.57763671875,5.0048828125,-4.94384765625,10.447714153595156,0.03606650141591672,0.042472865461457274,0
1649249368.5688562,-0.05401611328125,-0.03387451171875,0.98199462890625,0.9840623324967378,0.67138671875,3.0517578125,-2.44140625,4.239198084517905,0.03594839265133487,0.04264748978056027,0
1649249368.5737123,-0.05401611328125,-0.03387451171875,0.98199462890625,0.9840623324967378,1.5869140625,-0.8544921875,-8.23974609375,3.7076031612518165,0.035685273142007645,0.042821958229416604,0
1649249368.5785615,-0.05401611328125,-0.03387451171875,0.98199462890625,0.9840623324967378,3.0517578125,-4.45556640625,-8.48388671875,15.733106469213267,0.0354232354220585,0.04299443557294643,0
1649249368.5834117,-0.05401611328125,-0.03387451171875,0.98199462890625,0.9840623324967378,-3.84521484375,8.97216796875,-0.3662109375,9.18087241459107,0.03516123633744428,0.04316561659528951,0
1649249368.588261,-0.05401611328125,-0.03387451171875,0.98199462890625,0.9840623324967378,9.3994140625,-3.47900390625,19.22607421875,9.022680804078586,0.03489930164505495,0.04333548521735721,0
1649249368.5932732,-0.05401611328125,-0.03387451171875,0.98199462890625,0.9840623324967378,-0.1220703125,10.80322265625,7.75146484375,11.361887374578252,0.03463735407422064,0.0435040919250887,0
1649249368.5984156,-0.50701904296875,0.12652587890625,0.9935302734375,1.1225771742747754,-0.30517578125,2.38037109375,-0.6103515625,8.29786361580326,0.033172802643093746,0.043681106611171985,0
1649249368.6044486,-0.50701904296875,0.12652587890625,0.9935302734375,1.1225771742747754,2.25830078125,-16.41845703125,-8.056640625,12.270799019360235,0.03066061712888768,0.043839248001221603,0
1649249368.609549,-0.45758056640625,0.17303466796875,0.98858642578125,1.1030068414614058,-9.27734375,5.18798828125,3.662109375,16.04969308951875,0.027687340501870494,0.044019099430738694,0
1649249368.6144695,-0.45758056640625,0.17303466796875,0.98858642578125,1.0441602159197096,1.3427734375,-2.9296875,16.90673828125,16.819698884210034,0.025392621369974222,0.044152194685399826,0
1649249368.619319,-0.325927734375,0.06756591796875,0.98968505859375,1.0441602159197096,9.82666015625,-0.1220703125,-0.18310546875,39.30597719378977,0.023490500476327725,0.04427086810253887,0
1649249368.6242008,-0.325927734375,0.06756591796875,0.98968505859375,1.142242220873715,5.67626953125,-9.94873046875,8.85009765625,23.09727088817068,0.02189851251023356,0.04438171899806953,0
1649249368.6290488,-0.5965576171875,0.15948486328125,0.9609375,1.142242220873715,-16.66259765625,-19.22607421875,26.30615234375,23.616820039455273,0.0196687846473651,0.04448219079472131,0
1649249368.6339028,-0.5965576171875,0.15948486328125,0.9609375,1.1725460467696236,19.34814453125,-11.962890625,18.06640625,36.234634859075285,0.016769275316619314,0.04457074258906261,0
1649249368.6387615,-0.58502197265625,0.17889404296875,1.00030517578125,1.1725460467696236,7.6904296875,-16.90673828125,31.25,37.399363585784506,0.013899349323764909,0.044645233282518286,0
1649249368.643613,-0.58502197265625,0.17889404296875,1.00030517578125,1.1103078083687545,9.21630859375,-10.68115234375,31.73828125,33.275469336148205,0.011058557975047734,0.04470582947415758,0
1649249368.6485183,-0.5306396484375,0.12139892578125,0.96771240234375,1.1103078083687545,-3.96728515625,31.92138671875,25.32958984375,45.29219863190825,0.008332912759215105,0.04475320429501319,0
1649249368.653375,-0.5306396484375,0.12139892578125,0.96771240234375,1.0987982205804625,1.220703125,-10.3759765625,40.34423828125,51.37728312679506,0.00574784502532566,0.04478750225288791,0
1649249368.6582272,-0.4716796875,0.10052490234375,0.9873046875,1.0987982205804625,4.0283203125,10.43701171875,42.29736328125,43.42637427301612,0.0033158315418404527,0.04480949422972699,0
1649249368.6630838,-0.4716796875,0.10052490234375,0.9873046875,1.0987982205804625,1.28173828125,-14.22119140625,44.0673828125,39.36171375639038,0.0010298015622538514,0.04482002494349262,0
1649249368.6679618,-0.4716796875,0.10052490234375,0.9873046875,1.0987982205804625,3.96728515625,-19.95849609375,33.26416015625,34.60801003479096,-0.0012681488806265406,0.044819444546355114,0
1649249368.6728172,-0.4716796875,0.10052490234375,0.9873046875,1.0987982205804625,-3.47900390625,-2.86865234375,25.0244140625,35.591451759928084,-0.0035660993235069327,0.04480766869179101,0
1649249368.6777031,-0.4716796875,0.10052490234375,0.9873046875,1.0987982205804625,-23.193359375,22.705078125,8.97216796875,32.634636785736994,-0.005870909655641299,0.04478461224440097,0
1649249368.6825795,-0.4716796875,0.10052490234375,0.9873046875,1.0987982205804625,-20.01953125,23.86474609375,21.3623046875,19.606730522174786,-0.008160763180057984,0.04475055260992043,0
1649249368.6874912,-0.010986328125,-0.0567626953125,0.9217529296875,0.923564381281727,1.64794921875,13.73291015625,-10.68115234375,12.863367334674962,-0.00934835313091753,0.044707471784036265,0
1649249368.6923552,-0.010986328125,-0.0567626953125,0.9217529296875,0.923564381281727,18.1884765625,-1.64794921875,-11.53564453125,25.113129948053295,-0.009401895156770479,0.044661781983624964,0
1649249368.697274,0.35595703125,-0.2135009765625,1.0220947265625,1.1031616858631041,14.22119140625,-2.50244140625,-10.19287109375,25.72535901073998,-0.008555773987609427,0.04461773664944728,0
1649249368.7021906,0.35595703125,-0.2135009765625,1.0220947265625,1.1031616858631041,-4.69970703125,-4.94384765625,4.08935546875,13.809870076849355,-0.006799965391110163,0.04457986446707729,0
1649249368.7070498,0.2281494140625,-0.14190673828125,0.99078369140625,1.0265680691816206,8.85009765625,0.67138671875,-3.35693359375,42.185272935081805,-0.005381514034525026,0.04455028281093367,0
1649249368.7119312,0.2281494140625,-0.14190673828125,0.99078369140625,1.0265680691816206,-16.90673828125,-11.16943359375,16.78466796875,24.864991542010056,-0.004267231248377357,0.04452672055279498,0
1649249368.7167997,-0.34625244140625,0.05474853515625,0.96112060546875,1.0230547265606862,-12.451171875,22.3388671875,29.84619140625,44.78412738455029,-0.0045537888508988544,0.04450531314799301,0
1649249368.7216504,-0.34625244140625,0.05474853515625,0.96112060546875,1.0230547265606862,1.28173828125,31.31103515625,30.09033203125,45.533494701571975,-0.006238613335881382,0.044479055855218094,0
1649249368.7265074,-0.621826171875,0.103271484375,0.9884033203125,1.1722942937328098,-2.62451171875,7.50732421875,44.677734375,47.48095808322314,-0.008589622884755954,0.04444304501429111,0
1649249368.7313585,-0.621826171875,0.103271484375,0.9884033203125,1.1722942937328098,0.244140625,34.85107421875,31.1279296875,51.29640873799635,-0.011605720821535215,0.044394067392215936,0
1649249368.7362258,-0.352294921875,0.076904296875,0.974853515625,1.0394062534847348,6.65283203125,48.828125,42.78564453125,43.15772549470697,-0.013975933572510257,0.04433182260168134,0
1649249368.7410805,-0.352294921875,0.076904296875,0.974853515625,1.0394062534847348,6.89697265625,1.64794921875,46.142578125,29.1476582280108,-0.01568579240120016,0.044259841200756794,0
1649249368.7459378,0.117919921875,-0.081298828125,0.9964599609375,1.006701078364908,-11.5966796875,6.28662109375,27.40478515625,28.629131939279873,-0.016253852663794532,0.044182427062027047,0
1649249368.7507875,0.117919921875,-0.081298828125,0.9964599609375,1.006701078364908,0.79345703125,-6.28662109375,42.90771484375,29.640031811655916,-0.015680489625083283,0.0441047897500154,0
1649249368.7561765,0.14501953125,-0.09576416015625,0.95123291015625,0.9669775013818729,1.77001953125,-21.240234375,29.4189453125,29.570509634028532,-0.014983035915065557,0.044023453954279826,0
1649249368.76112,0.14501953125,-0.09576416015625,0.95123291015625,0.9669775013818729,6.28662109375,-26.79443359375,16.845703125,56.18570414846126,-0.014254083798732609,0.043949972609707996,1
1649249368.7659907,-0.0281982421875,0.0157470703125,0.97686767578125,0.9774014359883829,-6.40869140625,7.75146484375,20.3857421875,25.625099903004987,-0.013970337342470884,0.043881421980529606,1
1649249368.7708378,-0.0281982421875,0.0157470703125,0.97686767578125,0.9774014359883829,4.82177734375,-0.91552734375,13.5498046875,20.531595154623357,-0.014107419003266841,0.0438131740123459,1
1649249368.7756813,-0.0318603515625,0.00970458984375,1.0030517578125,1.0036045485730263,-3.96728515625,6.28662109375,15.07568359375,17.40711527784817,-0.014252951019443572,0.0437444520931131,1
1649249368.780538,-0.0318603515625,0.00970458984375,1.0030517578125,1.0036045485730263,6.65283203125,-6.04248046875,22.27783203125,23.999004810283335,-0.01440756962983869,0.043674907193909776,1
1649249368.785383,-0.0230712890625,-0.00311279296875,0.988037109375,0.9883113392859446,-4.94384765625,8.30078125,4.0283203125,20.257972007561897,-0.014540704374667257,0.04360474688140195,1
1649249368.7902322,-0.0230712890625,-0.00311279296875,0.988037109375,0.9883113392859446,5.9814453125,-2.3193359375,21.6064453125,21.21048521118159,-0.014652499055955559,0.04353401730785125,1
1649249368.7953877,-0.05712890625,0.02545166015625,0.976318359375,0.9783194967835008,2.197265625,-24.90234375,8.72802734375,22.89241497345194,-0.014847114798612893,0.043462432828087316,1
1649249368.8007584,-0.05712890625,0.02545166015625,0.976318359375,0.9783194967835008,6.89697265625,-3.35693359375,16.357421875,19.588006523900876,-0.015153932268731296,0.043381870762695895,1
1649249368.8064528,-0.05712890625,0.02545166015625,0.976318359375,0.9783194967835008,-19.53125,-22.27783203125,30.45654296875,24.401318084768764,-0.01546046370640397,0.043299738306223925,1
1649249368.812015,-0.4727783203125,0.14996337890625,0.9949951171875,1.11176599983875,-1.0986328125,-11.8408203125,27.34375,31.247734941410688,-0.01701229458558373,0.043204641982709825,1
1649249368.81737,-0.4727783203125,0.14996337890625,0.9949951171875,1.11176599983875,0.30517578125,18.12744140625,33.87451171875,51.72073187589035,-0.019565833878004923,0.043105860287079974,1
1649249368.8227706,-0.41033935546875,0.116455078125,0.976318359375,1.065428416516239,-1.15966796875,31.06689453125,40.83251953125,37.4460010365775,-0.02194369906646898,0.04299409253960425,1
1649249368.8281453,-0.41033935546875,0.116455078125,0.976318359375,1.065428416516239,22.5830078125,12.5732421875,38.0859375,40.99373005981239,-0.024147865879058372,0.04287030049231551,1
1649249368.8335083,-0.2625732421875,0.05438232421875,0.96533203125,1.0018822661658104,0.8544921875,-28.99169921875,44.00634765625,50.75160408303705,-0.02595540529000573,0.04273571594512335,1
1649249368.8388906,-0.2625732421875,0.05438232421875,0.96533203125,1.0018822661658104,14.22119140625,-29.6630859375,31.67724609375,51.439312966658356,-0.027369028714019805,0.04259217376932435,1
1649249368.8442557,-0.15362548828125,0.0040283203125,0.96405029296875,0.9762223032625946,8.056640625,-9.58251953125,42.41943359375,56.59693644424818,-0.02848516224185005,0.042442387788176675,1
1649249368.8496082,-0.15362548828125,0.0040283203125,0.96405029296875,0.9762223032625946,0.54931640625,25.0244140625,52.1240234375,32.237889004475846,-0.02930835790175479,0.04228754572555705,1
1649249368.8552413,-0.22027587890625,0.0289306640625,0.995361328125,1.019854214913966,5.2490234375,10.009765625,32.3486328125,36.16239007299536,-0.03030972405395005,0.04212787920767746,1
1649249368.8607442,-0.22027587890625,0.0289306640625,0.995361328125,1.019854214913966,11.71875,-4.150390625,26.06201171875,37.23854872682419,-0.03157592970819678,0.04195001142410653,1
1649249368.8661098,-0.22027587890625,0.0289306640625,0.995361328125,1.019854214913966,2.25830078125,12.0849609375,30.6396484375,19.962695318710466,-0.032764881587354466,0.04177636978690999,1
1649249368.8714643,-0.06866455078125,-0.04522705078125,0.9598388671875,0.9633540146904168,-8.4228515625,36.865234375,23.3154296875,20.801619391949878,-0.033538640214828774,0.04159881442685928,1
1649249368.876823,-0.06866455078125,-0.04522705078125,0.9598388671875,0.9633540146904168,4.2724609375,2.5634765625,17.578125,22.923719159020305,-0.03390601968567353,0.041418388113837246,1
1649249368.8821828,-0.0164794921875,-0.07012939453125,0.97760009765625,0.9802508130971314,4.94384765625,-15.380859375,19.8974609375,8.532706111963522,-0.03413394720701035,0.04123624758509373,1
1649249368.8876145,-0.0164794921875,-0.07012939453125,0.97760009765625,0.9802508130971314,-6.34765625,28.86962890625,16.4794921875,52.257394014229234,-0.034223383423523046,0.041050755794662844,1
1649249368.8931193,-0.04541015625,-0.053466796875,0.94482421875,0.947424712045907,8.60595703125,-12.63427734375,11.29150390625,31.911582243408855,-0.03438985657703597,0.040866197266314325,1
1649249368.8984268,-0.04541015625,-0.053466796875,0.94482421875,0.947424712045907,-12.51220703125,-2.86865234375,16.9677734375,32.173170307275065,-0.03464030889153946,0.0406758349537847,1
1649249368.9037035,-0.12469482421875,-0.0164794921875,0.986572265625,0.9945577952789614,15.13671875,-21.6064453125,21.97265625,22.31667672395183,-0.03508999590121675,0.04049149695168898,1
1649249368.9103615,-0.12469482421875,-0.0164794921875,0.986572265625,0.9945577952789614,-3.0517578125,-11.29150390625,10.7421875,20.76083722400773,-0.03574154899979476,0.04030644310985365,1
1649249368.9158456,-0.12469482421875,-0.0164794921875,0.986572265625,0.9945577952789614,-4.33349609375,-26.85546875,15.31982421875,33.767007233705705,-0.03658655236358754,0.04006137484285972,1
1649249368.9211223,-0.31329345703125,0.076904296875,0.98126220703125,1.032929126341333,17.4560546875,-25.57373046875,16.29638671875,23.603960821382646,-0.03777025677845813,0.039860418591231406,1
1649249368.9263601,-0.31329345703125,0.076904296875,0.98126220703125,1.032929126341333,15.44189453125,30.8837890625,21.05712890625,37.93765816192086,-0.03941294879768975,0.03965807118662856,1
1649249368.9316018,-0.290771484375,0.057861328125,1.00927734375,1.0519205036622707,-8.6669921875,-9.27734375,32.65380859375,32.790424095969996,-0.04099472380767111,0.03944751957467467,1
1649249368.9368744,-0.290771484375,0.057861328125,1.00927734375,1.0519205036622707,-8.72802734375,-36.31591796875,36.865234375,32.82272996832218,-0.04252958648430649,0.03922707439117529,1
1649249368.9421055,-0.3193359375,0.08331298828125,1.0096435546875,1.0622130683235669,-1.3427734375,7.26318359375,41.56494140625,48.26078789931395,-0.044126311273430474,0.039000285443667744,1
1649249368.9473422,-0.3193359375,0.08331298828125,1.0096435546875,1.0622130683235669,13.18359375,56.640625,37.65869140625,55.066363113623474,-0.04579733587161172,0.03876500871986096,1
1649249368.9525568,-0.3017578125,0.06903076171875,0.9495849609375,0.9987665500540801,30.09033203125,26.67236328125,28.25927734375,46.67761091776789,-0.047420443923329,0.03852140213237175,1
1649249368.9578147,-0.3017578125,0.06903076171875,0.9495849609375,0.9987665500540801,-27.77099609375,-19.22607421875,7.2021484375,33.95974373765126,-0.04899315438524354,0.038270156483627,1
1649249368.9630654,-0.12451171875,0.03369140625,1.00909423828125,1.0173049988541283,1.0986328125,-3.11279296875,13.7939453125,36.184943456390805,-0.050119932580855675,0.03800816622369516,1
1649249368.9682972,-0.12451171875,0.03369140625,1.00909423828125,0.9829611331551814,-1.40380859375,59.326171875,11.5966796875,8.976319059917197,-0.05077165698457975,0.037744120751869614,1
1649249368.9735227,-0.01666259765625,-0.0355224609375,0.982177734375,0.9829611331551814,2.25830078125,4.2724609375,-6.591796875,78.04239197190478,-0.05114058867911808,0.037477792864162904,1
1649249368.9787552,-0.01666259765625,-0.0355224609375,0.982177734375,0.9829611331551814,8.72802734375,10.3759765625,-10.3759765625,18.483980879205582,-0.05122764583211392,0.03721037096400031,1
1649249368.9845068,-0.01666259765625,-0.0355224609375,0.982177734375,0.9829611331551814,-5.9814453125,1.64794921875,-6.2255859375,33.76000097235231,-0.05132224709086586,0.03691925942318509,1
1649249368.9899635,0.02105712890625,-0.02581787109375,0.94866943359375,0.9492542648735767,-11.8408203125,5.31005859375,-15.7470703125,28.573385292982202,-0.05131017263192916,0.03663723648123451,1
1649249368.9953623,0.02105712890625,-0.02581787109375,0.94866943359375,0.9492542648735767,0.244140625,5.615234375,-3.35693359375,23.564629678582538,-0.05119876971730264,0.03636607427759721,1
1649249369.000738,0.02105712890625,-0.02581787109375,0.94866943359375,0.9492542648735767,-10.1318359375,5.9814453125,-3.84521484375,22.430233078781757,-0.05108400814788183,0.03608735318117451,1
1649249369.006094,0.02105712890625,-0.02581787109375,0.94866943359375,0.9492542648735767,-12.451171875,-12.6953125,21.97265625,39.9161055813473,-0.050971194497833494,0.03581397260853935,1
1649249369.011454,0.02105712890625,-0.02581787109375,0.94866943359375,0.9492542648735767,1.953125,-18.00537109375,41.80908203125,47.700058234677066,-0.05085834570490988,0.035541111556422325,1
1649249369.0168288,0.02105712890625,-0.02581787109375,0.94866943359375,0.9492542648735767,-23.74267578125,-42.54150390625,51.26953125,77.00077846988174,-0.05074532119760988,0.03526843182779793,1
1649249369.022278,-0.73736572265625,0.273193359375,0.98858642578125,1.263188798950465,-12.8173828125,5.9814453125,50.10986328125,78.2059488539323,-0.05268766442168271,0.03498796971884059,1
1649249369.0276382,-0.73736572265625,0.273193359375,0.98858642578125,1.1190233768339677,9.21630859375,-3.96728515625,57.18994140625,72.74212837892837,-0.05666130997269647,0.034693330266355016,1
1649249369.033237,-0.47259521484375,0.164794921875,1.0008544921875,1.1190233768339677,23.681640625,20.44677734375,63.53759765625,67.02896865661661,-0.0599459110017051,0.03437678434645638,1
1649249369.038982,-0.18292236328125,0.02801513671875,0.9532470703125,0.9710434675817207,-45.5322265625,55.96923828125,42.3583984375,64.0308243666168,-0.06184261694579618,0.03402439558894837,1
1649249369.0445864,-0.18292236328125,0.02801513671875,0.9532470703125,0.9710434675817207,7.8125,105.1025390625,54.74853515625,66.20241183413835,-0.06285795001167571,0.03367831267515184,1
1649249369.0505073,-0.18292236328125,0.02801513671875,0.9532470703125,0.9710434675817207,-6.4697265625,-56.45751953125,45.71533203125,57.076813512271734,-0.06394694389746292,0.03330085813192951,1
1649249369.0559285,-0.18292236328125,0.02801513671875,0.9532470703125,0.9710434675817207,-45.2880859375,-7.26318359375,25.32958984375,52.36706143443285,-0.06496624566352693,0.03294168542217606,1
1649249369.0621543,0.03973388671875,-0.034423828125,0.9986572265625,1.0000400181303057,-2.25830078125,-34.1796875,38.39111328125,39.830946267533854,-0.06541067523357924,0.03253704580430905,1
1649249369.0675366,0.07269287109375,-0.01043701171875,0.94354248046875,0.9463961100779057,-25.5126953125,3.96728515625,22.5830078125,25.6256087161081,-0.06510606744268443,0.03218342521224585,1
1649249369.0728726,0.07269287109375,-0.01043701171875,0.94354248046875,0.9463961100779057,9.70458984375,-8.544921875,15.44189453125,30.561613737022594,-0.06471796694677323,0.03183686597356368,1
1649249369.0781999,0.1571044921875,-0.079833984375,0.94573974609375,0.962018167119598,-10.80322265625,42.48046875,-19.4091796875,32.76223692615528,-0.06410609500017017,0.031493851465358394,1
1649249369.0835524,0.1571044921875,-0.079833984375,0.94573974609375,0.962018167119598,-14.0380859375,-23.13232421875,-31.3720703125,43.782334640322226,-0.06326950117363594,0.031154708911487482,1
1649249369.0889695,0.2655029296875,-0.06610107421875,0.97869873046875,1.0162245631289677,-20.20263671875,6.4697265625,-39.48974609375,85.29267276322092,-0.062127314595272765,0.030815797305758296,1
1649249369.094493,0.2655029296875,-0.06610107421875,0.97869873046875,1.0162245631289677,23.92578125,-7.99560546875,-14.2822265625,43.105557868979474,-0.06068949951441027,0.03048324378606977,1
1649249369.0998204,0.109130859375,-0.02947998046875,1.012939453125,1.0192276239454747,20.5078125,-23.62060546875,13.671875,47.76604464979576,-0.05965750021277927,0.030151725318441302,1
1649249369.1050568,0.109130859375,-0.02947998046875,1.012939453125,1.0192276239454747,20.56884765625,-3.72314453125,14.404296875,44.019043846184104,-0.059083446889417246,0.029839423025150715,1
1649249369.1106305,-0.31951904296875,0.160400390625,0.96002197265625,1.0244329612596015,11.1083984375,-1.77001953125,23.25439453125,43.227974365827905,-0.05964345231768675,0.02952339288851834,1
1649249369.1164422,-0.31951904296875,0.160400390625,0.96002197265625,1.0244329612596015,10.31494140625,-14.2822265625,32.53173828125,83.49774453834591,-0.06146535588777624,0.02917811054166868,1
1649249369.122188,-0.31951904296875,0.160400390625,0.96002197265625,1.0244329612596015,-7.2021484375,17.39501953125,45.8984375,81.99559299617215,-0.0633109512127703,0.028817746153187905,1
1649249369.128281,-0.47296142578125,0.2376708984375,0.95013427734375,1.0876282045003483,-30.57861328125,30.21240234375,55.72509765625,70.59678252462615,-0.06560177930805366,0.028445097341561535,1
1649249369.1343563,-0.47296142578125,0.2376708984375,0.95013427734375,1.0876282045003483,-22.3388671875,22.4609375,54.38232421875,87.25288868497043,-0.06854973695590161,0.02802701568967262,1
1649249369.140495,-0.06903076171875,0.0670166015625,0.97064208984375,0.9753986556914563,-12.02392578125,13.916015625,68.78662109375,105.52816130501292,-0.07016235051560216,0.027614299421228408,1
1649249369.146372,0.17376708984375,-0.03570556640625,1.0045166015625,1.0200605333997739,-6.9580078125,-0.244140625,34.97314453125,56.79310630038107,-0.06984099902183516,0.02718475661662423,1
1649249369.1517885,0.17376708984375,-0.03570556640625,1.0045166015625,1.0200605333997739,28.1982421875,-42.3583984375,38.39111328125,60.19558054315398,-0.06883405982080149,0.02678296202744206,1
1649249369.1570086,0.23858642578125,-0.0450439453125,0.990966796875,1.02027821307969,31.6162109375,23.98681640625,36.0107421875,38.569486303600186,-0.06774799898994388,0.026423230829206952,1
1649249369.1622243,0.23858642578125,-0.0450439453125,0.990966796875,1.02027821307969,20.08056640625,-16.11328125,35.15625,62.48777985316514,-0.06650412888120627,0.02607326915735884,1
1649249369.1674755,0.27264404296875,-0.10711669921875,0.98876953125,1.031248732045868,-34.11865234375,121.15478515625,19.22607421875,89.6908246397748,-0.06516227663814789,0.025727677741390287,1
1649249369.1726894,0.27264404296875,-0.10711669921875,0.98876953125,1.031248732045868,-14.2822265625,-18.06640625,17.9443359375,32.61248389039349,-0.06373922208877048,0.025391279663171624,1
1649249369.1778996,0.30303955078125,-0.1175537109375,1.02484130859375,1.0751518739661987,-18.06640625,95.947265625,-3.47900390625,42.508740718377375,-0.062240137565822806,0.02506322843795107,1
1649249369.1831045,0.30303955078125,-0.1175537109375,1.02484130859375,1.0751518739661987,6.9580078125,37.17041015625,2.74658203125,19.533729395849118,-0.06066146940429462,0.02474310379840455,1
1649249369.188307,0.30303955078125,-0.1175537109375,1.02484130859375,1.0751518739661987,-9.09423828125,13.97705078125,-12.3291015625,25.314068922234284,-0.05908561900287168,0.024431752529487382,1
1649249369.193554,0.30303955078125,-0.1175537109375,1.02484130859375,1.0751518739661987,0.244140625,23.74267578125,-5.92041015625,19.729561152906705,-0.05750586708745686,0.024127855524958736,1
1649249369.1988835,0.15728759765625,-0.08990478515625,0.97210693359375,0.9888448559362127,12.14599609375,-20.263671875,-5.7373046875,41.11314714640948,-0.0563000927286339,0.023829753819045316,1
1649249369.204156,0.15728759765625,-0.08990478515625,0.97210693359375,1.003405087799038,-64.453125,28.86962890625,-17.4560546875,40.665448666269924,-0.055452661275921855,0.023528704022107022,1
1649249369.2093933,0.07379150390625,-0.063720703125,0.9986572265625,1.003405087799038,-0.18310546875,-56.45751953125,12.02392578125,64.15186905431221,-0.054847706538566854,0.0232399425997621,1
1649249369.215092,0.02069091796875,0.00164794921875,0.96954345703125,0.9697656133804314,-2.50244140625,-22.88818359375,9.033203125,31.134511214450992,-0.0545803749046172,0.022930323231083294,1
1649249369.2204003,0.02069091796875,0.00164794921875,0.96954345703125,0.9697656133804314,17.76123046875,5.92041015625,6.16455078125,63.03826647936792,-0.054469651491672266,0.022638543254898363,1
1649249369.225641,-0.00384521484375,-0.02545166015625,0.936767578125,0.9371211597803573,4.21142578125,25.45166015625,13.916015625,22.52536324304471,-0.0544256511493586,0.02235410929682479,1
1649249369.2309015,-0.00384521484375,-0.02545166015625,0.936767578125,0.9371211597803573,0.3662109375,-51.08642578125,-0.30517578125,36.29621724695798,-0.05444596128654666,0.02206658344010279,1
1649249369.236142,0.01190185546875,-0.0732421875,1.03765869140625,1.0403084312088966,24.90234375,-19.47021484375,9.09423828125,69.34877733433063,-0.054424939953605644,0.021782511722084202,1
1649249369.241357,0.01190185546875,-0.0732421875,1.03765869140625,1.0403084312088966,17.9443359375,12.39013671875,10.19287109375,25.486983342941958,-0.0543625916907331,0.02149756818374156,1
1649249369.246572,0.07781982421875,-0.07598876953125,0.9737548828125,0.9798105888065796,-14.404296875,-15.44189453125,11.5966796875,23.238689896733234,-0.054128709743963555,0.02121475853421776,1
1649249369.2517867,0.07781982421875,-0.07598876953125,0.9737548828125,0.9798105888065796,8.7890625,7.568359375,-1.5869140625,13.54017860844179,-0.05372282917960547,0.020933500873174117,1
1649249369.2570019,0.07781982421875,-0.07598876953125,0.9737548828125,0.9798105888065796,61.70654296875,-21.6064453125,18.61572265625,69.81015897461172,-0.05331783919245936,0.02065497031015038,1
1649249369.2623305,0.07781982421875,-0.07598876953125,0.9737548828125,0.9798105888065796,-27.7099609375,-8.72802734375,2.0751953125,45.243562677793726,-0.05291052999382373,0.020376970505087792,1
1649249369.268091,0.07855224609375,-0.064453125,0.9539794921875,0.9593755949590124,6.04248046875,-30.45654296875,0.91552734375,49.72826011618743,-0.05247902804694604,0.020086152589942903,1
1649249369.2734895,0.07855224609375,-0.064453125,0.9539794921875,0.9593755949590124,29.1748046875,9.21630859375,21.42333984375,38.04767349313896,-0.05202947357611265,0.019787101534873945,1
1649249369.2787561,0.07855224609375,-0.064453125,0.9539794921875,0.9593755949590124,-6.89697265625,-38.9404296875,19.6533203125,44.30433482980051,-0.05161782521463465,0.019515522790531543,1
1649249369.2840478,-0.0838623046875,-0.03515625,1.025390625,1.0294147764139838,-9.27734375,4.5166015625,7.01904296875,31.910298100946676,-0.051631811293191276,0.019243435161136774,1
1649249369.2893195,-0.0838623046875,-0.03515625,1.025390625,1.0294147764139838,18.12744140625,-55.60302734375,25.81787109375,50.62640865155737,-0.05207804478413891,0.018967513748676702,1
1649249369.2946217,-0.08660888671875,-0.012451171875,0.97760009765625,0.9815080651106396,10.986328125,58.28857421875,38.51318359375,49.92201952846184,-0.052525184240948875,0.01869314345407729,1
1649249369.3002126,-0.08660888671875,-0.012451171875,0.97760009765625,0.9815080651106396,-8.056640625,22.15576171875,46.2646484375,66.01163073312138,-0.053006082707725,0.018400160676008786,1
1649249369.3055148,-0.18310546875,-0.0157470703125,0.97357177734375,0.9907661623964821,-6.04248046875,-32.65380859375,45.95947265625,75.89701432775128,-0.05373430369945709,0.01811196470693546,1
1649249369.3107493,-0.18310546875,-0.0157470703125,0.97357177734375,0.9907661623964821,-38.6962890625,19.53125,55.11474609375,68.45081208585374,-0.054693245809176005,0.01782804161117194,1
1649249369.3159776,-0.18310546875,-0.0157470703125,0.97357177734375,0.9907661623964821,-5.9814453125,40.283203125,52.18505859375,63.39308311241755,-0.055650572656304576,0.01753958736523155,1
1649249369.3212059,-0.18310546875,-0.0157470703125,0.97357177734375,0.9907661623964821,36.0107421875,-12.6953125,80.322265625,78.68655563102914,-0.05660811778216157,0.017246060463500378,1
1649249369.3264437,-0.09429931640625,-0.060791015625,0.99298095703125,0.9992992993503509,-20.263671875,49.8046875,71.35009765625,93.80200056502726,-0.05733428494568216,0.016947791522872718,1
1649249369.3316503,-0.09429931640625,-0.060791015625,0.99298095703125,0.9511129588184499,-6.65283203125,1.52587890625,64.208984375,70.0260792414483,-0.057826633790682536,0.01664715654750998,1
1649249369.3369339,0.06170654296875,-0.12396240234375,0.94097900390625,0.9511129588184499,-3.173828125,-24.10888671875,76.0498046875,79.33117073197576,-0.0579121090559056,0.01634368860039519,1
1649249369.3421674,0.06170654296875,-0.12396240234375,0.94097900390625,0.9511129588184499,41.3818359375,31.6162109375,45.47119140625,66.38621981849394,-0.057587636198149994,0.016040021188402857,1
1649249369.3473983,0.06170654296875,-0.12396240234375,0.94097900390625,0.9511129588184499,-19.22607421875,43.45703125,72.8759765625,59.437118210152995,-0.05726479637087323,0.015739575419534572,1
1649249369.3526511,0.30963134765625,-0.1937255859375,0.9993896484375,1.0640398693198874,-8.30078125,4.82177734375,43.15185546875,52.789906121152605,-0.05629061412764713,0.01544166974569203,1
1649249369.3578796,0.30963134765625,-0.1937255859375,0.9993896484375,1.0640398693198874,0.6103515625,38.9404296875,42.724609375,47.81269908689052,-0.05466941212944221,0.015151181367091917,1
1649249369.3631625,0.4306640625,-0.23675537109375,0.97393798828125,1.0909078079691572,11.53564453125,1.953125,34.11865234375,33.82658446154105,-0.052712819386215415,0.014867371293366499,1
1649249369.368395,0.4306640625,-0.23675537109375,0.97393798828125,1.0909078079691572,-5.7373046875,52.18505859375,21.3623046875,22.587048968027247,-0.050462418781535234,0.014597804316947694,1
1649249369.3736372,0.46014404296875,-0.22064208984375,0.97723388671875,1.1024525121027566,14.404296875,-54.5654296875,13.12255859375,81.45266803852563,-0.04812522581778467,0.014339142156314318,0
1649249369.378866,0.46014404296875,-0.22064208984375,0.97723388671875,1.1024525121027566,-19.95849609375,-11.16943359375,-2.74658203125,19.961855544387117,-0.04571924403717276,0.014093797151709374,0
1649249369.3841002,0.40740966796875,-0.17431640625,1.0096435546875,1.1026100646032273,8.48388671875,-17.7001953125,6.16455078125,33.44665304026733,-0.043449785429402255,0.013860537332843774,0
1649249369.38936,0.40740966796875,-0.17431640625,1.0096435546875,1.1026100646032273,-18.4326171875,2.01416015625,5.79833984375,26.109424497419337,-0.04130671723396517,0.013637618021527537,0
1649249369.3947172,0.40740966796875,-0.17431640625,1.0096435546875,1.1026100646032273,2.13623046875,-7.14111328125,5.18798828125,23.37463212361245,-0.03917617932893336,0.013427176449670727,0
1649249369.400109,0.40740966796875,-0.17431640625,1.0096435546875,1.1026100646032273,4.82177734375,-28.38134765625,14.5263671875,30.5762375691091,-0.036958706463337876,0.013219980773373568,0
1649249369.4054697,0.09906005859375,-0.0728759765625,0.95086669921875,0.95878635933752,35.94970703125,-5.4931640625,7.14111328125,19.23963280592091,-0.03560049030056689,0.013025396440621244,0
1649249369.4108317,0.09906005859375,-0.0728759765625,0.95086669921875,1.0141107237683327,-26.67236328125,12.51220703125,20.99609375,26.25888197360104,-0.03506979926896747,0.012836096689503128,0
1649249369.416234,0.13201904296875,-0.0904541015625,1.00140380859375,1.0141107237683327,6.65283203125,-9.3994140625,21.05712890625,19.107611074937086,-0.034445121040334925,0.012648176375685383,0
1649249369.4219193,0.25030517578125,-0.13421630859375,0.98565673828125,1.025761134102208,-7.4462890625,24.59716796875,24.5361328125,32.73931698150181,-0.03342251889989711,0.012466650878566077,0
1649249369.4274096,0.25030517578125,-0.13421630859375,0.98565673828125,1.025761134102208,1.953125,-29.9072265625,17.39501953125,18.50170803562111,-0.03196943378134165,0.012276842431701534,0
1649249369.432857,0.38580322265625,-0.15325927734375,0.97503662109375,1.0597306002837672,3.35693359375,0.30517578125,8.9111328125,23.568897673944146,-0.030232395278289914,0.012106986205463643,0
1649249369.4382117,0.38580322265625,-0.15325927734375,0.97503662109375,1.0597306002837672,5.37109375,-26.85546875,6.16455078125,24.95509525515537,-0.028163797323941253,0.011950431986285493,0
1649249369.4441113,0.4808349609375,-0.19775390625,0.9664306640625,1.0974047090919492,-0.6103515625,8.6669921875,-11.16943359375,23.57269079887097,-0.025636492449848447,0.01179353867469718,0
1649249369.4495165,0.4808349609375,-0.19775390625,0.9664306640625,1.0974047090919492,-1.220703125,15.869140625,5.43212890625,9.749208002446007,-0.023006651121249888,0.01166051616207995,0
1649249369.45488,0.4808349609375,-0.19775390625,0.9664306640625,1.0974047090919492,-21.17919921875,2.50244140625,7.75146484375,15.63274668346545,-0.020427022107469384,0.011544007616801324,0
1649249369.4602342,0.4808349609375,-0.19775390625,0.9664306640625,1.0974047090919492,-6.77490234375,-5.43212890625,-5.126953125,32.365096599010975,-0.017851749413239304,0.011441500225415149,0
1649249369.4656432,0.4808349609375,-0.19775390625,0.9664306640625,1.0974047090919492,-2.3193359375,-27.16064453125,9.46044921875,12.656225039610563,-0.015250109521730337,0.0113519485874473,0
1649249369.4710636,0.41583251953125,-0.14703369140625,0.99609375,1.0893752106126329,-9.765625,6.53076171875,15.869140625,21.27283160032908,-0.012821650772821158,0.011275921394123697,0
1649249369.4764202,0.41583251953125,-0.14703369140625,0.99609375,1.0893752106126329,11.16943359375,9.27734375,6.16455078125,22.962444633662177,-0.010593231578241102,0.011213181984843298,0
1649249369.4818094,0.4962158203125,-0.15325927734375,0.9931640625,1.1207557278291465,0.30517578125,11.65771484375,10.19287109375,39.312468860777635,-0.008141708516632207,0.011162823757440229,0
1649249369.487225,0.4962158203125,-0.15325927734375,0.9931640625,1.1207557278291465,2.9296875,-18.73779296875,-10.986328125,34.85839553065674,-0.005452470490126871,0.011125986980348888,0
1649249369.4927146,0.4837646484375,-0.16314697265625,0.99755859375,1.120610689637233,-6.04248046875,18.9208984375,-2.62451171875,11.341048136953482,-0.0028190514858579263,0.011103759615763173,0
1649249369.4984136,0.4837646484375,-0.16314697265625,0.99755859375,1.120610689637233,-4.638671875,19.8974609375,7.26318359375,19.28614360467712,-8.322273788508028e-05,0.01109555301645764,0
1649249369.5037906,0.50665283203125,-0.166259765625,0.9788818359375,1.114696842464056,-12.63427734375,15.5029296875,-2.5634765625,34.09522383290125,0.002682968166482169,0.01110281394658871,0
1649249369.5090282,0.50665283203125,-0.166259765625,0.9788818359375,1.1492702374701245,-5.126953125,-24.10888671875,-9.765625,27.79700769282336,0.005352305983251426,0.011123981163862519,0
1649249369.5143135,0.591796875,-0.1922607421875,0.96624755859375,1.1492702374701245,21.42333984375,-13.427734375,-20.93505859375,22.3313616041186,0.00825772272219183,0.01115997990369115,0
1649249369.5195303,0.60150146484375,-0.18768310546875,0.99591064453125,1.1785020034680556,-0.54931640625,-3.35693359375,-3.23486328125,17.860476148672344,0.011375749731087126,0.011211281154471186,0
1649249369.5247424,0.60150146484375,-0.18768310546875,0.99591064453125,1.1785020034680556,5.43212890625,-9.09423828125,-14.83154296875,27.390916199341234,0.014513541376800276,0.011278808173189974,0
1649249369.5305195,0.46728515625,-0.18310546875,1.0074462890625,1.1255358969324551,2.74658203125,23.98681640625,-22.5830078125,17.161410210580073,0.01740751607576385,0.0113652414525824,0
1649249369.5358098,0.46728515625,-0.18310546875,1.0074462890625,1.1255358969324551,8.60595703125,4.39453125,-15.9912109375,13.433004558805829,0.020036890811752528,0.011470589735271527,0
1649249369.5410192,0.46728515625,-0.18310546875,1.0074462890625,1.1255358969324551,3.72314453125,10.92529296875,-3.662109375,16.372218485456653,0.02248199429595843,0.011581831310924953,0
1649249369.5462372,0.46728515625,-0.18310546875,1.0074462890625,1.1255358969324551,-16.357421875,25.20751953125,-14.892578125,26.61398778101015,0.024917293747421354,0.01170534417948911,0
1649249369.5514762,0.2413330078125,-0.14154052734375,0.971923828125,1.0113907599032776,-0.244140625,21.6064453125,-15.07568359375,37.93161868552474,0.02677022803982254,0.011840499593880055,0
1649249369.5567327,0.2413330078125,-0.14154052734375,0.971923828125,1.0113907599032776,-6.65283203125,16.90673828125,-19.47021484375,14.896204772621914,0.0280324451305205,0.011983813745803451,0
1649249369.561939,0.3995361328125,-0.202880859375,0.98583984375,1.0828988697235447,-6.40869140625,13.0615234375,-27.40478515625,29.487877335020052,0.029714872085605748,0.012135413560663501,0
1649249369.5671709,0.3995361328125,-0.202880859375,0.98583984375,1.0828988697235447,-15.07568359375,-19.22607421875,-14.70947265625,35.43562615366854,0.03179813911265228,0.01229578457274392,0
1649249369.5724037,0.31494140625,-0.17138671875,0.95159912109375,1.0169082475823552,13.85498046875,13.24462890625,-34.7900390625,27.514334323988948,0.03366656517027877,0.012466980940228807,0
1649249369.577677,0.31494140625,-0.17138671875,0.95159912109375,1.0169395852226095,15.9912109375,-12.14599609375,-21.78955078125,19.258018477075357,0.03531939964159392,0.012648002518235425,0
1649249369.582954,0.22137451171875,-0.1468505859375,0.98162841796875,1.0169395852226095,9.3994140625,-6.4697265625,-12.6953125,17.22857162973322,0.03674250297626713,0.012839217305047609,0
