time,ax,ay,az,am,gx,gy,gz,gm,velx,distx,button
1649249148.0019274,0.01611328125,-0.00677490234375,0.985107421875,0.9852624877501519,0.8544921875,0.06103515625,-2.3193359375,2.9156667266836394,0,0,0
1649249148.0070722,0.01611328125,-0.00677490234375,0.985107421875,0.9852624877501519,-0.3662109375,-1.03759765625,-0.3662109375,8.977356532795445,0.00013090611901134253,5.317480570449229e-07,0
1649249148.0120258,0.01611328125,-0.00677490234375,0.985107421875,0.9852624877501519,-4.2724609375,2.685546875,5.79833984375,4.432934279276719,0.00021117471624165773,1.3837889405593495e-06,0
1649249148.0168746,0.01318359375,-0.005126953125,0.9744873046875,0.9745899649542978,2.50244140625,-4.21142578125,-2.38037109375,8.146307223325213,0.00028225674759596586,2.58098525530992e-06,0
1649249148.0219877,0.01318359375,-0.005126953125,0.9744873046875,0.9745899649542978,-0.732421875,-1.220703125,-10.498046875,5.6857778016778395,0.00034776446409523487,4.146235660723585e-06,0
1649249148.026924,0.0135498046875,-0.00439453125,0.9825439453125,0.9826471969034611,0.06103515625,2.44140625,3.23486328125,6.806719873916571,0.0004155109345447272,6.080490834441121e-06,0
1649249148.031849,0.0135498046875,-0.00439453125,0.9825439453125,0.9826471969034611,-5.126953125,-5.126953125,-1.89208984375,3.6712532328668375,0.00048234403948299587,8.294782371569276e-06,0
1649249148.0367362,0.0150146484375,-0.0069580078125,0.9862060546875,0.9863448868639736,-3.173828125,6.7138671875,1.40380859375,8.011663487846876,0.0005518805701285601,1.0812470735702823e-05,0
1649249148.0416186,0.0150146484375,-0.0069580078125,0.9862060546875,0.9863448868639736,-1.52587890625,3.173828125,-7.4462890625,9.448825709734423,0.0006253338942769915,1.3692002547791016e-05,0
1649249148.046513,0.0157470703125,-0.00732421875,0.98052978515625,0.9806835748508723,-1.0986328125,2.9296875,0.8544921875,4.986239810913111,0.0007006374362390488,1.6937930986948846e-05,0
1649249148.0513864,0.0157470703125,-0.00732421875,0.98052978515625,0.9806835748508723,-0.67138671875,-4.21142578125,-8.6669921875,4.898808028764921,0.0007773021643515676,2.0535610917166158e-05,0
1649249148.0562851,0.01593017578125,-0.0091552734375,0.9737548828125,0.9739282115912459,6.77490234375,-3.47900390625,-1.46484375,7.64914435918442,0.0008547826873837039,2.4527586342398128e-05,0
1649249148.0611553,0.01593017578125,-0.0091552734375,0.9737548828125,0.9739282115912459,2.44140625,3.47900390625,-1.28173828125,4.795825507949998,0.0009325705468654633,2.889145476856099e-05,0
1649249148.066021,0.01593017578125,-0.00604248046875,0.980712890625,0.9808608748995343,-5.2490234375,2.86865234375,3.2958984375,6.134564580723089,0.0010100545623572543,3.361589711385268e-05,0
1649249148.0709233,0.01593017578125,-0.00604248046875,0.980712890625,0.9808608748995343,-0.67138671875,2.5634765625,-4.08935546875,4.761524625205587,0.00108807030483149,3.875352935235089e-05,0
1649249148.0757952,0.01593017578125,-0.005126953125,0.9862060546875,0.9863480310980763,1.40380859375,1.77001953125,-4.0283203125,7.582620290273091,0.001165717636467889,4.4246269109879735e-05,0
1649249148.080713,0.01593017578125,-0.005126953125,0.9862060546875,0.9863480310980763,4.57763671875,-2.5634765625,4.57763671875,10.038381471800859,0.001244063809281215,5.0172040306115454e-05,0
1649249148.0856006,0.015380859375,-0.00677490234375,0.9803466796875,0.9804907355560207,2.01416015625,5.0048828125,0.67138671875,11.453324726023418,0.001320532894169446,5.643540279290631e-05,0
1649249148.0904787,0.015380859375,-0.00677490234375,0.9803466796875,0.9804907355560207,2.01416015625,0.8544921875,3.7841796875,3.481144831933398,0.0013956420807517134,6.306733693935054e-05,0
1649249148.095388,0.015380859375,-0.00677490234375,0.9803466796875,0.9804907355560207,-6.53076171875,-1.77001953125,2.0751953125,6.614927047650158,0.0014710959731019102,7.00990163545875e-05,0
1649249148.1002548,0.015380859375,-0.00677490234375,0.9803466796875,0.9804907355560207,0.42724609375,-2.01416015625,-3.173828125,5.445485357225454,0.0015460181384696625,7.744739387008457e-05,0
1649249148.1051219,0.015380859375,-0.00677490234375,0.9803466796875,0.9804907355560207,-0.3662109375,-2.25830078125,-5.18798828125,2.003032114431389,0.001620921968424227,8.515879469170057e-05,0
1649249148.1100142,0.015380859375,-0.00677490234375,0.9803466796875,0.9804907355560207,4.2724609375,3.2958984375,1.220703125,2.2267378353216185,0.0016962658482952975,9.328349677365736e-05,0
1649249148.1148672,0.015380859375,-0.00677490234375,0.9803466796875,0.9804907355560207,-1.708984375,-3.11279296875,1.77001953125,6.6958097898603075,0.0017709056482999586,0.00010169619273485853,0
1649249148.1197746,0.015380859375,-0.00677490234375,0.9803466796875,0.9804907355560207,-3.90625,-4.57763671875,0.48828125,11.48304730480363,0.0018462018560967408,0.00011054987482225342,0
1649249148.124642,0.015380859375,-0.00677490234375,0.9803466796875,0.9804907355560207,2.9296875,-3.7841796875,6.103515625,5.111307157969809,0.001921109353133943,0.0001197236097340475,0
1649249148.1295314,0.015380859375,-0.00677490234375,0.9803466796875,0.9804907355560207,3.41796875,6.40869140625,-5.7373046875,6.201604392519794,0.001996324885112699,0.00012930213499839135,0
1649249148.1344182,0.0150146484375,-0.00384521484375,0.97357177734375,0.9736951427347087,-6.34765625,-1.953125,0.06103515625,5.068858568602188,0.0020705580318463035,0.0001392344420414358,0
1649249148.1393135,0.0150146484375,-0.00384521484375,0.97357177734375,0.9736951427347087,2.25830078125,-1.03759765625,8.30078125,6.162133073232214,0.0021440686323330738,0.0001495516911665497,0
1649249148.144179,0.01483154296875,-0.005126953125,0.97467041015625,0.9747967320161329,-5.7373046875,-6.53076171875,2.685546875,4.094817655693239,0.0022166791386553086,0.00016016061943096866,0
1649249148.1490695,0.01483154296875,-0.005126953125,0.97467041015625,0.9747967320161329,-3.173828125,1.220703125,-0.91552734375,4.015816442772456,0.0022888441817485727,0.0001711217610080697,0
1649249148.1539967,0.01373291015625,-0.00714111328125,0.9847412109375,0.9848628538222514,-0.06103515625,0.8544921875,-0.8544921875,4.912477028285861,0.0023594431186211295,0.00018261031078874428,0
1649249148.1589391,0.01373291015625,-0.00714111328125,0.9847412109375,0.9848628538222514,4.5166015625,2.50244140625,9.09423828125,4.330486273209658,0.0024273332601296715,0.00019444228675107294,0
1649249148.1638153,0.0157470703125,-0.00750732421875,0.9873046875,0.9874587971656462,-0.732421875,-3.60107421875,3.23486328125,7.895505547744341,0.0024993585830088705,0.00020647915262025224,0
1649249148.1686883,0.0157470703125,-0.00750732421875,0.9873046875,0.9874587971656462,4.82177734375,-2.13623046875,0.48828125,1.3496914299008778,0.002575948223238811,0.00021882163648020286,0
1649249148.173555,0.0157470703125,-0.005126953125,0.9788818359375,0.9790219122165466,4.45556640625,-5.79833984375,2.74658203125,5.636754470045831,0.0026526580040808767,0.0002315568700775525,0
1649249148.1784284,0.0157470703125,-0.005126953125,0.9788818359375,0.9790219122165466,3.35693359375,3.41796875,2.197265625,4.093907797298341,0.002729352767346427,0.00024466318235710077,0
1649249148.1833053,0.01409912109375,-0.00274658203125,0.9752197265625,0.9753255066925646,3.35693359375,-1.8310546875,-2.01416015625,3.8233544344154846,0.002802073569910135,0.000258140605894735,0
1649249148.188172,0.01409912109375,-0.00274658203125,0.9752197265625,0.9753255066925646,-1.03759765625,-7.14111328125,1.46484375,4.582923379539339,0.002870795920898672,0.00027196603961032826,0
1649249148.193036,0.0146484375,-0.00604248046875,0.98089599609375,0.9810239769975843,0.30517578125,-6.9580078125,-7.2021484375,6.092825110256569,0.002940764490631409,0.00028611077362605646,0
1649249148.197898,0.0146484375,-0.00604248046875,0.98089599609375,0.9810239769975843,2.01416015625,-1.220703125,-2.50244140625,6.5637628157720656,0.0030119792354526,0.0003005806829743749,0
1649249148.2027833,0.0179443359375,-0.00732421875,0.98345947265625,0.9836504347225415,3.84521484375,0.91552734375,1.46484375,6.005375540248069,0.00309158640448004,0.0003154885146905047,0
1649249148.2076924,0.0179443359375,-0.00732421875,0.98345947265625,0.9836504347225415,-0.6103515625,2.62451171875,-6.16455078125,9.454146716176806,0.0031796929542906582,0.0003308844811147939,0
1649249148.212961,0.017578125,-0.009521484375,0.97998046875,0.9801843542286771,2.74658203125,0.8544921875,0.91552734375,6.4795078257276435,0.0032718634174671024,0.00034762439505375484,0
1649249148.2179377,0.017578125,-0.009521484375,0.97998046875,0.9801843542286771,-0.42724609375,3.7841796875,0.42724609375,2.027984341532733,0.003360585862537846,0.0003643624463797561,0
1649249148.2228103,0.0146484375,-0.006591796875,0.97467041015625,0.9748027682261603,0.244140625,2.38037109375,-1.708984375,6.293727968664163,0.003439137217355892,0.00038093658333008054,0
1649249148.227729,0.0146484375,-0.006591796875,0.97467041015625,0.9748027682261603,4.33349609375,4.8828125,-1.0986328125,5.381141281358858,0.0035111936449538916,0.00039803110322553584,0
1649249148.2326071,0.015380859375,-0.00457763671875,0.98016357421875,0.9802949340980588,-1.28173828125,3.23486328125,-2.38037109375,1.2875380315996696,0.003584446501918137,0.00041534006370210624,0
1649249148.237482,0.015380859375,-0.00457763671875,0.98016357421875,0.9802949340980588,-2.86865234375,5.79833984375,0.18310546875,5.861917579854966,0.0036593980039469898,0.00043298982607690994,0
1649249148.2423792,0.01666259765625,-0.00823974609375,0.9847412109375,0.9849166401757041,0.30517578125,1.220703125,0.42724609375,2.575799297608544,0.003737995808478445,0.00045113452601812376,0
1649249148.2472491,0.01666259765625,-0.00823974609375,0.9847412109375,0.9849166401757041,4.45556640625,0.732421875,2.44140625,5.308304420204809,0.003819089979515411,0.00046952408387925144,0
1649249148.252114,0.01666259765625,-0.0062255859375,0.98052978515625,0.9806911132764898,0.67138671875,-0.6103515625,-3.173828125,4.867529794281467,0.0039002437406452373,0.0004883222622224809,0
1649249148.2569828,0.01666259765625,-0.0062255859375,0.98052978515625,0.9806911132764898,0.0,0.8544921875,-11.5966796875,7.318621722106246,0.003981250512879342,0.000507480571839955,0
1649249148.2621236,0.01483154296875,-0.0054931640625,0.976318359375,0.9764464595516454,-1.52587890625,0.244140625,-3.60107421875,6.015292567195761,0.004057997837662697,0.0005270712255910637,0
1649249148.268579,0.01483154296875,-0.0054931640625,0.976318359375,0.9764464595516454,-0.8544921875,2.01416015625,0.9765625,3.167953923916255,0.00414127335534431,0.0005500896854589363,0
1649249148.2744246,0.015380859375,-0.00714111328125,0.9774169921875,0.9775640863651184,-1.15966796875,0.3662109375,-3.96728515625,8.28168579970179,0.004238502122461796,0.0005770572608658278,0
1649249148.2798812,0.01629638671875,-0.00494384765625,0.985107421875,0.9852546099780222,3.84521484375,0.06103515625,2.25830078125,4.328765436156529,0.004326423899328802,0.0006008296403315688,0
1649249148.2854812,0.01629638671875,-0.00494384765625,0.985107421875,0.9852546099780222,2.5634765625,2.62451171875,2.38037109375,4.01396070494565,0.0044180446056998335,0.0006254109906363011,0
1649249148.2904968,0.01702880859375,-0.0040283203125,0.983642578125,0.9837982156860519,0.6103515625,2.0751953125,6.65283203125,4.143653338011152,0.004507870711677242,0.0006494702709413545,0
1649249148.2966526,0.01702880859375,-0.0040283203125,0.983642578125,0.9837982156860519,0.244140625,-0.91552734375,-8.056640625,8.218016051384668,0.004592553865222726,0.0006720981796271555,0
1649249148.3020754,0.01556396484375,-0.00787353515625,0.971923828125,0.9720803244766704,3.41796875,0.0,-7.32421875,2.370176738152783,0.004696347408753354,0.0007016792148397911,0
1649249148.3072817,0.01556396484375,-0.00787353515625,0.971923828125,0.9720803244766704,-6.103515625,-1.3427734375,-1.5869140625,4.668291791009019,0.0047779576780158095,0.0007265186627879268,0
1649249148.31225,0.0150146484375,-0.0098876953125,0.9759521484375,0.9761177194509209,-4.08935546875,0.0,0.244140625,1.046534924284805,0.00485727842169581,0.0007515124087741172,0
1649249148.3171203,0.0150146484375,-0.0098876953125,0.9759521484375,0.9761177194509209,-4.33349609375,3.47900390625,-0.91552734375,2.520242043708811,0.004930524119117763,0.0007753862419282694,0
1649249148.3220527,0.01629638671875,-0.0062255859375,0.98089599609375,0.9810511124773786,6.4697265625,4.08935546875,2.38037109375,6.80425659637294,0.005007665065932088,0.0007998709425946285,0
1649249148.3269198,0.01629638671875,-0.0062255859375,0.98089599609375,0.9810511124773786,-3.173828125,-2.25830078125,-2.0751953125,4.25761231118049,0.005087054654723033,0.0008244596953474268,0
1649249148.331774,0.01519775390625,-0.00384521484375,0.98602294921875,0.9861475618724772,-2.74658203125,-4.69970703125,-0.67138671875,6.745144210105174,0.005163602996617556,0.00084937451540496,0
1649249148.3366303,0.01519775390625,-0.00384521484375,0.98602294921875,0.9861475618724772,-7.26318359375,-0.3662109375,5.0048828125,9.70497370506549,0.005237339733866975,0.0008746062564238943,0
1649249148.341511,0.015380859375,-0.0069580078125,0.97906494140625,0.979210469816707,0.244140625,0.6103515625,0.244140625,5.482642375560272,0.005311877903295681,0.0009003209402241984,0
1649249148.346443,0.015380859375,-0.0069580078125,0.97906494140625,0.979210469816707,5.615234375,-1.5869140625,3.173828125,4.344228429998595,0.005387724173488095,0.0009267019404752674,0
1649249148.3513746,0.01519775390625,-0.0062255859375,0.97705078125,0.9771888040626006,-3.173828125,-1.5869140625,1.40380859375,4.170983780095187,0.005462539382278919,0.0009532487536317007,0
1649249148.3564103,0.01519775390625,-0.0062255859375,0.97705078125,0.9771888040626006,6.16455078125,2.0751953125,-0.244140625,1.4417739027121237,0.005537522578379139,0.0009803849939011063,0
1649249148.361627,0.0146484375,-0.006591796875,0.9818115234375,0.9819429189427954,7.080078125,5.55419921875,7.87353515625,2.18451295998209,0.005614925634290557,0.0010093077318412544,0
1649249148.367143,0.0146484375,-0.006591796875,0.9818115234375,0.9843728542304494,7.38525390625,6.77490234375,1.3427734375,5.489772173283413,0.005690048441465478,0.0010382958538716928,0
1649249148.372372,0.01739501953125,-0.00732421875,0.98419189453125,0.9843728542304494,3.47900390625,2.197265625,4.638671875,9.56052941855531,0.00578185920312535,0.0010711651094427888,0
1649249148.3772576,0.01739501953125,-0.00732421875,0.98419189453125,0.9843728542304494,3.11279296875,-1.5869140625,-4.45556640625,3.8067544261505555,0.005867878266144544,0.0010999693168691135,0
1649249148.3821146,0.01739501953125,-0.00732421875,0.98419189453125,0.9843728542304494,4.21142578125,0.732421875,3.47900390625,1.633189472687946,0.005952503837761469,0.001128721989163516,0
1649249148.386976,0.01739501953125,-0.00732421875,0.98419189453125,0.9782765890301965,0.6103515625,-1.708984375,-1.77001953125,3.969162716769802,0.006036946928361431,0.0011578230279829516,0
1649249148.3918755,0.01556396484375,-0.0025634765625,0.9781494140625,0.9782765890301965,-1.64794921875,2.86865234375,1.52587890625,10.739759691025576,0.006117248180089518,0.0011874355023799577,0
1649249148.3967664,0.01556396484375,-0.0025634765625,0.9781494140625,0.983564366620599,-1.15966796875,6.7138671875,2.9296875,4.158013020080834,0.006193771027028561,0.0012177000990912581,0
1649249148.4016263,0.01373291015625,-0.00421142578125,0.98345947265625,0.983564366620599,-2.86865234375,-1.46484375,-1.15966796875,8.036269819644916,0.00626510800793767,0.0012480370826728274,0
1649249148.4064994,0.01373291015625,-0.00421142578125,0.98345947265625,0.980685181685682,-0.42724609375,-3.47900390625,6.04248046875,5.468014258892832,0.006331839089398272,0.0012786426824088985,0
1649249148.4113948,0.01593017578125,-0.00714111328125,0.98052978515625,0.980685181685682,-1.77001953125,-8.85009765625,3.41796875,2.635842636924949,0.006404432002454996,0.0013098114900638343,0
1649249148.4162652,0.01593017578125,-0.00714111328125,0.98052978515625,0.9785121472234084,5.37109375,5.79833984375,-2.197265625,1.1353195335533615,0.006482090728241019,0.0013412220328230789,0
1649249148.4212537,0.018310546875,-0.0040283203125,0.97833251953125,0.9785121472234084,-0.91552734375,0.79345703125,-3.84521484375,3.0149143152413256,0.006567147531313822,0.0013736374260388071,0
1649249148.4261343,0.018310546875,-0.0040283203125,0.97833251953125,0.9824837329569805,-0.6103515625,-3.662109375,-2.44140625,3.3933570859173923,0.006656838260823861,0.0014060250150284784,0
1649249148.4313562,0.01446533203125,-0.00567626953125,0.98236083984375,0.9824837329569805,-4.45556640625,-0.54931640625,-5.0048828125,2.241744100611201,0.006741659432009328,0.0014406991810419238,0
1649249148.4362717,0.01446533203125,-0.00567626953125,0.98236083984375,0.9824837329569805,1.5869140625,-0.244140625,7.4462890625,11.468926503748802,0.00681357389112236,0.001474394130818328,0
1649249148.4411597,0.01446533203125,-0.00567626953125,0.98236083984375,0.9824837329569805,-2.13623046875,-3.84521484375,-1.28173828125,1.5513018831956584,0.006884160560730379,0.0015078146376564195,0
1649249148.4460428,0.01446533203125,-0.00567626953125,0.98236083984375,0.9824837329569805,-3.60107421875,-0.9765625,5.0048828125,2.275555649695709,0.006954830001632217,0.001541619382807626,0
1649249148.4508898,0.01446533203125,-0.00567626953125,0.98236083984375,0.9824837329569805,1.40380859375,0.1220703125,-4.7607421875,2.1037216723161727,0.007025068342045415,0.0015755600091507975,0
1649249148.4557917,0.01446533203125,-0.00567626953125,0.98236083984375,0.9799333569616517,5.615234375,-3.7841796875,3.173828125,6.311755259177253,0.007095285989635158,0.0016098315371794068,0
1649249148.4607008,0.0150146484375,-0.00640869140625,0.97979736328125,0.9799333569616517,1.0986328125,2.86865234375,-0.732421875,7.312765703509226,0.007168225027271546,0.0016451221564521036,0
1649249148.4655683,0.0150146484375,-0.00640869140625,0.97979736328125,0.9810447558705887,4.5166015625,-6.34765625,0.732421875,6.090378929244491,0.007241252358653583,0.001680164125116377,0
1649249148.4704342,0.01611328125,-0.00567626953125,0.98089599609375,0.9810447558705887,2.0751953125,3.60107421875,-1.220703125,8.086870296319763,0.007316984818316996,0.0017155834774743358,0
1649249148.4753103,0.01611328125,-0.00567626953125,0.98089599609375,0.979218498931166,-1.77001953125,0.42724609375,-1.5869140625,9.6452928739095,0.007395601482130587,0.0017514748155905476,0
1649249148.480407,0.01611328125,-0.00640869140625,0.97906494140625,0.979218498931166,5.615234375,3.96728515625,0.91552734375,6.914504732116408,0.0074739761184901,0.0017876374605288094,0
1649249148.4855678,0.01611328125,-0.00640869140625,0.97906494140625,0.979218498931166,-4.57763671875,2.13623046875,4.94384765625,7.212485960313695,0.007559738354757428,0.001827645605134062,0
1649249148.490977,0.01611328125,-0.00640869140625,0.97906494140625,0.979218498931166,1.15966796875,4.0283203125,-1.28173828125,4.554793263380282,0.007639680407010019,0.0018653496801145138,0
1649249148.496431,0.0113525390625,-0.00439453125,0.979248046875,0.9793237101983057,1.953125,-5.43212890625,3.90625,1.9805884691879825,0.007719243003521115,0.0019098411903717468,0
1649249148.5017335,0.0113525390625,-0.00439453125,0.979248046875,0.9793237101983057,-5.7373046875,1.64794921875,5.06591796875,6.032608136260339,0.007777387392707169,0.0019495257976596039,0
1649249148.507288,0.015380859375,-0.00567626953125,0.980712890625,0.9808499195641238,-0.244140625,1.220703125,-0.91552734375,3.5787634800461543,0.007851494854548946,0.0019928505099095616,0
1649249148.51259,0.015380859375,-0.00567626953125,0.980712890625,0.9808499195641238,3.662109375,3.35693359375,3.60107421875,7.644272602522334,0.007938250695588067,0.002037381593043395,0
1649249148.518046,0.0164794921875,-0.00750732421875,0.9825439453125,0.9827108109967735,-0.67138671875,0.54931640625,0.0,2.559113194975174,0.008016543695703149,0.0020765885903881367,0
1649249148.5239146,0.0164794921875,-0.00750732421875,0.9825439453125,0.9827108109967735,1.0986328125,0.244140625,-0.1220703125,6.5796351387007705,0.008115437056403607,0.0021249925634347407,0
1649249148.5289185,0.01519775390625,-0.00274658203125,0.98291015625,0.9830314800127454,-0.9765625,-5.92041015625,1.3427734375,4.272896880660922,0.00820116484828759,0.002169150008441147,0
1649249148.533785,0.01519775390625,-0.00274658203125,0.98291015625,0.9830314800127454,-1.64794921875,3.72314453125,-6.04248046875,4.675866632152052,0.008275742220575921,0.0022095771807790782,0
1649249148.5386477,0.01519775390625,-0.00274658203125,0.98291015625,0.9830314800127454,-2.44140625,1.46484375,-2.13623046875,4.072467606838935,0.008349453593837097,0.00224989452049177,0
1649249148.5437412,0.01519775390625,-0.00274658203125,0.98291015625,0.9830314800127454,-2.38037109375,-2.197265625,-7.080078125,6.342078472590298,0.008423433100688271,0.002290717983412212,0
1649249148.54912,0.01519775390625,-0.00274658203125,0.98291015625,0.9830314800127454,-5.55419921875,-5.67626953125,1.220703125,9.651663545904334,0.008504496407113038,0.0023358639288358785,0
1649249148.5544431,0.01519775390625,-0.00274658203125,0.98291015625,0.9830314800127454,-3.72314453125,3.173828125,0.0,5.2098430988460205,0.0085859184328001,0.002381644910837623,0
1649249148.5597851,0.01519775390625,-0.00274658203125,0.98291015625,0.9830314800127454,0.6103515625,5.06591796875,2.685546875,2.7172643175722735,0.008665887464303523,0.0024270335326624926,0
1649249148.565048,0.016845703125,-0.00567626953125,0.9788818359375,0.9790432301374326,1.89208984375,6.103515625,2.0751953125,6.084871426448792,0.008751666639000177,0.002473659694588737,0
1649249148.570369,0.016845703125,-0.00567626953125,0.9788818359375,0.9790432301374326,0.67138671875,4.0283203125,-2.197265625,6.693583974195098,0.008840861264616251,0.0025202341512427506,0
1649249148.5761805,0.0172119140625,-0.006591796875,0.97723388671875,0.9774076790792934,1.40380859375,4.150390625,-4.150390625,6.789458163444836,0.00893108629679773,0.002567315382199937,0
1649249148.5814846,0.0172119140625,-0.006591796875,0.97723388671875,0.9774076790792934,3.11279296875,-6.103515625,5.43212890625,9.362283665458465,0.009031387467985041,0.0026196528836970653,0
1649249148.5868053,0.01629638671875,-0.0062255859375,0.97979736328125,0.9799526535671211,-1.5869140625,0.244140625,-2.5634765625,5.988292278521013,0.009119797752646264,0.0026675440454354887,0
1649249148.592097,0.01629638671875,-0.0062255859375,0.97979736328125,0.9799526535671211,-4.0283203125,4.8828125,-3.84521484375,3.5969338618548754,0.009206592840200756,0.0027163475226576464,0
1649249148.5973883,0.015380859375,-0.006591796875,0.98272705078125,0.982869512681296,-1.03759765625,1.15966796875,6.2255859375,8.572995526556346,0.009290557136409916,0.0027653764115662637,0
1649249148.6026409,0.015380859375,-0.006591796875,0.98272705078125,0.982869512681296,2.8076171875,5.4931640625,0.6103515625,3.246358922600635,0.009371665670187213,0.002814582554472967,0
1649249148.607968,0.015380859375,-0.006591796875,0.98272705078125,0.982869512681296,-3.173828125,0.18310546875,-1.953125,6.046486499538821,0.009453404942178167,0.0028646040626838197,0
1649249148.6132247,0.015380859375,-0.006591796875,0.98272705078125,0.9814246445942105,5.7373046875,-4.33349609375,-3.47900390625,3.4800745337276444,0.009534304452245124,0.002914539386512323,0
1649249148.6184983,0.01739501953125,-0.0040283203125,0.98126220703125,0.9814246445942105,0.732421875,-2.25830078125,3.11279296875,4.497177006784337,0.009620528304367326,0.0029649302081209764,0
1649249148.623788,0.01483154296875,-0.008056640625,0.982177734375,0.9823227504374529,1.220703125,-3.96728515625,3.11279296875,6.6472301171282435,0.009705748860142194,0.003016036995604706,0
1649249148.629063,0.01483154296875,-0.008056640625,0.982177734375,0.9823227504374529,-3.173828125,2.86865234375,-2.685546875,4.385621257126391,0.009784034918993711,0.0030674739352121224,0
1649249148.6343455,0.0146484375,-0.0076904296875,0.9803466796875,0.980486273134038,0.9765625,0.79345703125,-6.591796875,4.8919592064242865,0.00986183421628084,0.0031193204693351507,0
1649249148.6396258,0.0146484375,-0.0076904296875,0.9803466796875,0.980486273134038,3.96728515625,-2.8076171875,-1.8310546875,9.148964297456885,0.009939181720255874,0.003171597688624272,0
1649249148.6449416,0.0142822265625,-0.0069580078125,0.9803466796875,0.9804753991011743,-0.3662109375,-1.64794921875,3.2958984375,2.9054273035673597,0.010015458916313946,0.003224209133450281,0
1649249148.6502266,0.0142822265625,-0.0069580078125,0.9803466796875,0.9804753991011743,0.79345703125,-2.8076171875,1.28173828125,7.750022934295191,0.010091461823321879,0.003277708649807306,0
1649249148.6555088,0.01373291015625,-0.00640869140625,0.98052978515625,0.980646890437869,3.96728515625,5.31005859375,4.5166015625,10.235178966830404,0.010165532243263442,0.0033312669840866995,0
1649249148.6622484,0.01373291015625,-0.00640869140625,0.98052978515625,0.9823617272137476,-1.15966796875,0.18310546875,-0.732421875,7.090068214583345,0.010257147099764552,0.0033993887738636526,0
1649249148.6675763,0.01666259765625,-0.0091552734375,0.982177734375,0.9823617272137476,6.28662109375,-1.15966796875,1.8310546875,1.746714846344505,0.010339315551391337,0.003455067377934824,0
1649249148.6728437,0.01519775390625,-0.00732421875,0.97869873046875,0.978844124937794,-6.16455078125,1.220703125,-1.220703125,5.784188116796207,0.010423282838019077,0.0035097867694230287,0
1649249148.678115,0.01519775390625,-0.00732421875,0.97869873046875,0.978844124937794,2.44140625,-5.79833984375,6.40869140625,6.895081927647484,0.010503273610083852,0.0035648584404497736,0
1649249148.6833837,0.01556396484375,-0.00860595703125,0.97906494140625,0.9792264595020423,1.0986328125,-1.3427734375,4.150390625,6.535323501699502,0.010584495823422913,0.0036205378815659566,0
1649249148.688644,0.01556396484375,-0.00860595703125,0.97906494140625,0.9792264595020423,-1.0986328125,-4.5166015625,-1.46484375,1.0606779295033426,0.010666414083971176,0.003676463142004355,0
1649249148.69394,0.01739501953125,-0.00604248046875,0.9796142578125,0.9797873199752296,-2.44140625,-2.197265625,-2.44140625,6.603654157645989,0.010753614689747337,0.003733134775558326,0
1649249148.6992795,0.01739501953125,-0.00604248046875,0.9796142578125,0.9797873199752296,-0.48828125,-3.7841796875,4.45556640625,2.5224582909877715,0.010846136712643784,0.0037905780193045998,0
1649249148.704577,0.015380859375,-0.00274658203125,0.97943115234375,0.979555764992159,-2.0751953125,-7.50732421875,3.47900390625,4.722243929171069,0.010933001343801152,0.003848298417882157,0
1649249148.7100878,0.015380859375,-0.00274658203125,0.97943115234375,0.979555764992159,3.35693359375,0.91552734375,5.37109375,4.293770101797255,0.011015312680683564,0.003907027095702551,0
1649249148.7157998,0.015380859375,-0.00274658203125,0.97943115234375,0.979555764992159,4.82177734375,1.3427734375,-2.197265625,3.9319148946304705,0.011103759046818595,0.0039706240465906635,0
1649249148.7210782,0.015380859375,-0.00274658203125,0.97943115234375,0.9779157570131869,-3.84521484375,10.43701171875,0.30517578125,5.434528635144547,0.011187163174326997,0.004031061336662835,0
1649249148.7263265,0.015380859375,-0.0047607421875,0.977783203125,0.9779157570131869,-1.15966796875,2.50244140625,-7.87353515625,10.007346256303498,0.0112678426594357,0.00408995460993876,0
1649249148.731554,0.015380859375,-0.0047607421875,0.977783203125,0.9779157570131869,-0.67138671875,-2.3193359375,2.8076171875,4.345514529132706,0.011348536812874954,0.004149281905991716,0
1649249148.7368102,0.015380859375,-0.0047607421875,0.977783203125,0.9779157570131869,-0.732421875,-2.44140625,-1.0986328125,9.34675252637141,0.011428783582232427,0.00420870011962217,0
1649249148.7424898,0.01300048828125,-0.00531005859375,0.983642578125,0.9837428174671552,-5.18798828125,0.0,-0.732421875,6.0106459981006735,0.01150393389252713,0.004269423128797156,0
1649249148.7479994,0.01300048828125,-0.00531005859375,0.983642578125,0.9837428174671552,4.638671875,1.77001953125,2.0751953125,4.324891049330292,0.011579169462493155,0.004336215636891038,0
1649249148.7534645,0.01556396484375,-0.00677490234375,0.9814453125,0.9815920933522475,-4.33349609375,5.0048828125,-5.4931640625,3.0327778927746203,0.011657756876957137,0.004400145793478183,0
1649249148.7588856,0.01556396484375,-0.00677490234375,0.9814453125,0.9815920933522475,-8.72802734375,2.01416015625,-2.8076171875,7.583357194366923,0.011742309761757497,0.004463707461686991,0
1649249148.7642674,0.01556396484375,-0.00677490234375,0.9814453125,0.9815920933522475,-8.056640625,-3.662109375,-2.01416015625,5.833249659165217,0.01182607597002061,0.004527130706581633,0
1649249148.7696333,0.01556396484375,-0.00677490234375,0.9814453125,0.9815920933522475,-3.72314453125,1.708984375,-2.685546875,7.2549725448804,0.011909649219887797,0.0045908571320776295,0
1649249148.7750084,0.01409912109375,-0.00439453125,0.97906494140625,0.9791763153852053,3.84521484375,-5.4931640625,-6.89697265625,1.3877950440554288,0.011989317899860907,0.004655044626499581,0
1649249148.7805765,0.01409912109375,-0.00439453125,0.97906494140625,0.981412961056555,1.708984375,7.62939453125,-1.40380859375,3.7226442094670182,0.012065620416251477,0.004720135645753006,0
1649249148.786968,0.016845703125,-0.00347900390625,0.98126220703125,0.981412961056555,-0.8544921875,-0.42724609375,-6.591796875,4.596721285098323,0.01215811246947851,0.004792538797103493,0
1649249148.7925053,0.01336669921875,-0.0025634765625,0.98236083984375,0.9824551184245562,1.8310546875,1.0986328125,0.6103515625,6.227081717521464,0.01224973354692338,0.004866557179511069,0
1649249148.7989616,0.01336669921875,-0.0025634765625,0.98236083984375,0.9824551184245562,4.82177734375,1.89208984375,-1.5869140625,2.567107036720348,0.012329612429311965,0.00493999979441146,0
1649249148.8059814,0.01446533203125,-0.00384521484375,0.9803466796875,0.9804609343988544,3.0517578125,5.06591796875,1.15966796875,5.414613065482635,0.012415547716955189,0.005016403935950612,0
1649249148.8116803,0.01373291015625,-0.005126953125,0.97686767578125,0.9769776529972254,-0.18310546875,-4.57763671875,2.62451171875,7.420479492698942,0.012514244495832827,0.005103660800159748,0
1649249148.8177834,0.01373291015625,-0.005126953125,0.97686767578125,0.9769776529972254,3.96728515625,-2.44140625,6.34765625,4.307196963959314,0.012591099344717804,0.005173910564598525,0
1649249148.824642,0.0146484375,-0.005859375,0.98016357421875,0.9802905391881822,-2.86865234375,0.244140625,-7.26318359375,3.835514488126215,0.012678409308136906,0.005251647531243715,0
1649249148.8305142,0.015380859375,-0.00677490234375,0.98382568359375,0.9839692301264255,1.28173828125,-4.69970703125,-2.25830078125,1.3565741437312542,0.012781800258380827,0.0053393071015443135,0
1649249148.8360167,0.015380859375,-0.00677490234375,0.98382568359375,0.9839692301264255,-2.685546875,4.150390625,-7.99560546875,5.862870763022845,0.012870382306573447,0.0054131756291998,0
1649249148.841369,0.01629638671875,-0.0069580078125,0.9818115234375,0.9819714118279974,-0.1220703125,-1.15966796875,0.6103515625,8.998908850964382,0.01295566072803922,0.005482702007098333,0
1649249148.846892,0.01629638671875,-0.0069580078125,0.9818115234375,0.9819714118279974,2.25830078125,5.31005859375,1.15966796875,4.909442761765186,0.013043636965448968,0.005552880765919064,0
1649249148.8521698,0.01300048828125,-0.00494384765625,0.97686767578125,0.9769666884349029,-3.662109375,3.35693359375,-4.7607421875,5.191936112826352,0.013123614291544072,0.005624314554908267,0
1649249148.857406,0.01300048828125,-0.00494384765625,0.97686767578125,0.9769666884349029,3.35693359375,-1.3427734375,4.8828125,4.624999123650545,0.013191776670282707,0.005693301180894549,0
1649249148.8626232,0.01300048828125,-0.00494384765625,0.97686767578125,0.9769666884349029,0.244140625,0.732421875,0.3662109375,8.288205662484353,0.013259749975986779,0.005762452341534394,0
1649249148.8678763,0.01300048828125,-0.00494384765625,0.97686767578125,0.9769666884349029,3.72314453125,1.3427734375,-9.6435546875,3.938068500229135,0.013327459819265641,0.005831688810562067,0
1649249148.8731287,0.01593017578125,-0.0076904296875,0.9803466796875,0.980506259839021,3.662109375,1.220703125,4.7607421875,11.427274427088268,0.013403837030637078,0.005902259672859834,0
1649249148.8783703,0.01593017578125,-0.0076904296875,0.9803466796875,0.9805182448277027,7.62939453125,0.79345703125,0.48828125,10.699621309281609,0.013487378935678862,0.005972771870639857,0
1649249148.8836699,0.01556396484375,-0.00970458984375,0.9803466796875,0.9805182448277027,1.15966796875,-3.7841796875,-2.0751953125,8.327888657184692,0.013570824099588208,0.006044463815317907,0
1649249148.8890707,0.01336669921875,-0.00732421875,0.98089599609375,0.9810144076317393,-3.47900390625,2.38037109375,-2.685546875,10.547256462828127,0.013646508101373911,0.006115665658955148,0
1649249148.8943367,0.01336669921875,-0.00732421875,0.98089599609375,0.9810144076317393,1.89208984375,3.72314453125,-2.99072265625,2.18451295998209,0.013719012567889877,0.006189884523485047,0
1649249148.9001808,0.01300048828125,-0.006591796875,0.978515625,0.978624183663337,-4.08935546875,-1.64794921875,1.89208984375,10.837650936444009,0.013795320366625674,0.006269512211493741,0
1649249148.9054499,0.01300048828125,-0.006591796875,0.978515625,0.978624183663337,1.5869140625,3.90625,4.94384765625,8.66441285342547,0.013864815555280074,0.006343441987149612,0
1649249148.9106998,0.01300048828125,-0.006591796875,0.978515625,0.978624183663337,-1.708984375,0.48828125,-3.0517578125,7.142417332187853,0.013932863250374794,0.006416191868953524,0
1649249148.915963,0.01300048828125,-0.006591796875,0.978515625,0.978624183663337,-0.30517578125,-2.9296875,-4.7607421875,7.551852036365215,0.01400127359374892,0.0064896884889275,0
1649249148.9211843,0.0146484375,-0.00457763671875,0.98291015625,0.9830299622791361,1.0986328125,-1.52587890625,0.0,4.021378518073519,0.014073673723032698,0.006563204177437491,0
1649249148.9270291,0.0146484375,-0.00457763671875,0.98291015625,0.9830299622791361,-1.77001953125,-2.44140625,6.103515625,5.789016455751648,0.014159214537357911,0.006645638370591081,0
1649249148.9322615,0.0146484375,-0.00457763671875,0.98291015625,0.9830299622791361,2.3193359375,-0.9765625,-3.173828125,6.755078153941669,0.014235929906135425,0.006719992511688838,0
1649249148.937479,0.0146484375,-0.00457763671875,0.98291015625,0.9795539167127064,-2.9296875,2.197265625,-3.35693359375,2.480010944080816,0.014312390325358137,0.006794499316015383,0
1649249148.9427364,0.0142822265625,-0.00604248046875,0.97943115234375,0.9795539167127064,0.42724609375,0.8544921875,-3.7841796875,0.3506202787193621,0.014388401963515207,0.00686990699534034,0
1649249148.9481428,0.0150146484375,-0.0062255859375,0.97979736328125,0.9799321765718568,-2.3193359375,0.18310546875,2.01416015625,6.566883621246467,0.014465456100879237,0.006945795947413763,0
1649249148.9542391,0.0150146484375,-0.0062255859375,0.97979736328125,0.9799321765718568,-3.60107421875,-6.65283203125,4.08935546875,3.1703049104542362,0.014556113805156201,0.007033411348904731,0
1649249148.961081,0.0135498046875,-0.00714111328125,0.98199462890625,0.9821140686838208,-2.3193359375,-2.9296875,9.58251953125,6.252455229112746,0.014634960010880604,0.007113987210145396,0
1649249148.9668684,0.0135498046875,-0.00714111328125,0.98199462890625,0.9825114252976772,4.57763671875,1.40380859375,3.662109375,11.886195125824248,0.01473086461191997,0.0072179118703008215,0
1649249148.9723868,0.01519775390625,-0.008056640625,0.98236083984375,0.9825114252976772,-0.06103515625,5.126953125,0.6103515625,14.181449927731821,0.014810905064223334,0.007300163606531195,0
1649249148.9784367,0.0128173828125,-0.00567626953125,0.9796142578125,0.9797145499825389,3.60107421875,5.18798828125,7.38525390625,5.8961350955729115,0.014890382401063107,0.007384424456376472,0
1649249148.98421,0.0128173828125,-0.00567626953125,0.9796142578125,0.9797145499825389,3.47900390625,1.77001953125,-3.23486328125,4.140055635281157,0.014966211558203213,0.007472742032129831,0
1649249148.9896116,0.0128173828125,-0.00567626953125,0.9796142578125,0.9797145499825389,-3.35693359375,3.41796875,-1.3427734375,2.3305521352583964,0.015040390528156422,0.007559571725333315,0
1649249148.9950275,0.0128173828125,-0.00567626953125,0.9796142578125,0.9797145499825389,3.2958984375,7.568359375,2.99072265625,4.612901276291793,0.015107987084775232,0.007639070268214095,0
1649249149.000895,0.0128173828125,-0.00567626953125,0.9796142578125,0.9797145499825389,-1.03759765625,6.65283203125,2.685546875,8.852833292174983,0.01518020722141955,0.007724400384490633,0
1649249149.0070913,0.0128173828125,-0.00567626953125,0.9796142578125,0.9797145499825389,8.544921875,-0.6103515625,5.79833984375,2.0598800086286873,0.015257176230079494,0.007815789370242847,0
1649249149.012745,0.0128173828125,-0.00567626953125,0.9796142578125,0.9797145499825389,-1.5869140625,-1.15966796875,2.74658203125,7.409678023958375,0.015334117735619657,0.007907607655167875,0
1649249149.0188692,0.0157470703125,-0.00787353515625,0.9818115234375,0.9819693632359149,9.3994140625,-1.28173828125,4.69970703125,3.7550264685722716,0.015417938862810843,0.007997848208216363,0
1649249149.024798,0.0157470703125,-0.00787353515625,0.9818115234375,0.9819693632359149,-0.6103515625,-3.84521484375,3.60107421875,14.621965011903365,0.015512076541199349,0.008090299686011028,0
1649249149.030625,0.0164794921875,-0.00640869140625,0.9810791015625,0.9812384259245969,-0.6103515625,0.18310546875,2.50244140625,5.991091054697845,0.015610036192811094,0.008184902122148768,0
1649249149.0368319,0.0164794921875,-0.00640869140625,0.9810791015625,0.9812384259245969,-3.7841796875,-5.4931640625,-8.4228515625,5.779355744026277,0.015703582161222585,0.008273778123911061,0
1649249149.0425372,0.0164794921875,-0.00640869140625,0.9810791015625,0.9812384259245969,7.87353515625,-4.33349609375,-0.3662109375,4.794271700843623,0.01580585840565618,0.008371556235296933,0
1649249149.04828,0.01702880859375,-0.0087890625,0.9810791015625,0.9812662388283996,-4.0283203125,1.8310546875,-7.62939453125,6.29846143024794,0.015900987440545578,0.008461570995055321,0
1649249149.0536246,0.01702880859375,-0.0087890625,0.9810791015625,0.9812662388283996,1.708984375,5.79833984375,1.89208984375,5.51279586551618,0.015996364592865575,0.008550898401219597,0
1649249149.059005,0.0172119140625,-0.00567626953125,0.9781494140625,0.9783173034615601,3.5400390625,-1.40380859375,3.60107421875,4.413563522898175,0.01608769105951069,0.008636472630122207,0
1649249149.0645747,0.0172119140625,-0.00567626953125,0.9781494140625,0.9783173034615601,0.244140625,3.2958984375,-6.4697265625,6.629553147931892,0.016180515398446005,0.008723484304774185,0
1649249149.0703647,0.01519775390625,-0.0047607421875,0.98016357421875,0.9802929504057681,-6.34765625,-2.0751953125,-5.9814453125,5.581964533776209,0.016274422443530057,0.008817522519360809,0
1649249149.0760117,0.01409912109375,-0.0091552734375,0.978515625,0.9786600189118141,-1.64794921875,4.638671875,5.0048828125,3.670745838319066,0.01635623680340359,0.00890864679451095,0
1649249149.081811,0.01409912109375,-0.0091552734375,0.978515625,0.9786600189118141,0.79345703125,-3.35693359375,6.77490234375,6.4561810034640725,0.016437067250080872,0.009002649016246676,0
1649249149.0873642,0.01611328125,-0.008056640625,0.97979736328125,0.9799629688838716,-4.638671875,4.638671875,4.2724609375,4.748205649115412,0.01652479499898618,0.009098360371535035,0
1649249149.093405,0.01611328125,-0.008056640625,0.97979736328125,0.9799629688838716,6.04248046875,6.9580078125,-0.48828125,3.2406161993306357,0.01661549382697558,0.009191630801967847,0
1649249149.0991988,0.01611328125,-0.008056640625,0.97979736328125,0.9799629688838716,0.67138671875,0.54931640625,-1.220703125,1.4261866998959867,0.01671110619645333,0.00929050685165131,0
1649249149.1048791,0.01611328125,-0.008056640625,0.97979736328125,0.9790150287405417,-0.18310546875,4.69970703125,-4.39453125,6.452718006073782,0.01680476697947597,0.00938791478727414,0
1649249149.1109931,0.01409912109375,-0.00787353515625,0.9788818359375,0.9790150287405417,-2.3193359375,-3.7841796875,-0.1220703125,10.015160572156946,0.016895127497264184,0.009488705842539441,0
1649249149.1168962,0.01446533203125,-0.0087890625,0.9781494140625,0.9782958497720489,0.91552734375,2.50244140625,3.23486328125,6.33002546995321,0.016979095045826398,0.009588281893022438,0
1649249149.1227784,0.01446533203125,-0.0087890625,0.9781494140625,0.9782958497720489,-6.89697265625,0.67138671875,0.42724609375,6.6228066538357115,0.017065377222024836,0.009689815378339323,0
1649249149.1280725,0.01446533203125,-0.0087890625,0.9781494140625,0.9782958497720489,-2.8076171875,0.30517578125,-5.0048828125,10.21769350755811,0.01714742081821896,0.009786838418703035,0
1649249149.13322,0.01446533203125,-0.0087890625,0.9781494140625,0.9782958497720489,3.11279296875,-0.42724609375,-0.9765625,10.16359063943695,0.017222346083144657,0.009875849990817517,0
1649249149.1383345,0.0157470703125,-0.00531005859375,0.98162841796875,0.9817690756534995,-1.89208984375,-4.69970703125,-1.03759765625,2.0380624825517577,0.01729958237410756,0.009964103340570633,0
1649249149.1434562,0.0157470703125,-0.00531005859375,0.98162841796875,0.9817690756534995,-1.28173828125,-5.859375,4.45556640625,4.821391029817261,0.01738026054954389,0.010052942292705045,0
1649249149.149108,0.0157470703125,-0.00531005859375,0.98162841796875,0.9817690756534995,4.2724609375,-1.5869140625,-2.62451171875,6.850635531103898,0.017467955687607173,0.010149976822732837,0
1649249149.1543431,0.01556396484375,-0.00439453125,0.9810791015625,0.9812123890520579,-3.47900390625,0.244140625,-0.18310546875,7.862408486760084,0.017550930635479745,0.010242777659649071,0
1649249149.1594656,0.01556396484375,-0.00439453125,0.9810791015625,0.9812123890520579,6.16455078125,6.04248046875,0.18310546875,5.970536229350095,0.01763090075837681,0.01033316257790595,0
1649249149.1645825,0.015380859375,-0.0084228515625,0.978515625,0.9786727459333371,0.8544921875,-1.46484375,0.67138671875,7.446539202381572,0.017710123800497968,0.010423640502661332,0
1649249149.1698134,0.015380859375,-0.0084228515625,0.978515625,0.9786727459333371,-2.99072265625,-0.3662109375,-6.2255859375,6.932261164306975,0.017790480582334567,0.010516376358698593,0
1649249149.1749785,0.0150146484375,-0.00567626953125,0.9803466796875,0.9804780834255291,2.01416015625,-1.708984375,1.28173828125,4.411875089966113,0.0178690654647653,0.010608570943863319,0
1649249149.1801012,0.0150146484375,-0.00567626953125,0.9803466796875,0.9804780834255291,-2.74658203125,0.67138671875,0.732421875,7.038388337463807,0.017945944629900623,0.010700262337333254,0
1649249149.1852686,0.0146484375,-0.008056640625,0.97943115234375,0.9795738197607967,-3.60107421875,-8.9111328125,-1.0986328125,7.912237576416198,0.018022597003437113,0.010793208637480532,0
1649249149.1904008,0.0146484375,-0.008056640625,0.97943115234375,0.9795738197607967,0.8544921875,1.64794921875,-7.62939453125,7.084549116999428,0.018097677901096176,0.010885776280395502,0
1649249149.1955645,0.018310546875,-0.0076904296875,0.978515625,0.9787171436144259,-0.06103515625,1.708984375,-2.685546875,2.8996517383348883,0.018182760766649153,0.01097943340436053,0
1649249149.201186,0.018310546875,-0.0076904296875,0.978515625,0.9787171436144259,-4.57763671875,-1.46484375,-1.40380859375,4.877469000001721,0.018280230950040277,0.01107648278562361,0
1649249149.2064235,0.01666259765625,-0.005859375,0.98272705078125,0.9828857668993168,-2.62451171875,-0.6103515625,3.35693359375,2.909911484633842,0.018377012987912167,0.01117792527295591,0
1649249149.211797,0.01666259765625,-0.005859375,0.98272705078125,0.9828857668993168,3.11279296875,2.38037109375,4.8828125,1.4520724186243066,0.018463927124685142,0.011274008686054174,0
1649249149.2170644,0.01483154296875,-0.0069580078125,0.9814453125,0.9815820342527544,3.96728515625,1.64794921875,0.91552734375,6.129400677063656,0.018548870291851927,0.011373836278611741,0
1649249149.2222404,0.01483154296875,-0.0069580078125,0.9814453125,0.9815524540963682,1.03759765625,3.5400390625,4.94384765625,6.932529851393151,0.018625992968736682,0.011470489235540166,0
1649249149.2273824,0.01318359375,-0.00604248046875,0.9814453125,0.9815524540963682,-0.30517578125,1.46484375,0.18310546875,6.158807175008746,0.0186980595899513,0.011566502272526032,0
1649249149.232501,0.01318359375,-0.00604248046875,0.9814453125,0.9810115197154967,0.9765625,0.244140625,0.42724609375,9.4549347587485,0.01876571412140038,0.011662629098974846,0
1649249149.2376251,0.0142822265625,-0.0047607421875,0.98089599609375,0.9810115197154967,-1.89208984375,-4.2724609375,-2.86865234375,5.97365514312357,0.01883593875390943,0.011758769036717753,0
1649249149.2427704,0.01629638671875,-0.00640869140625,0.979248046875,0.9794046052853386,-0.3662109375,2.9296875,1.28173828125,4.094817655693239,0.018914559608674608,0.011855829567938691,0
1649249149.2479503,0.01629638671875,-0.00640869140625,0.979248046875,0.9794046052853386,1.28173828125,5.79833984375,6.16455078125,9.831208307913853,0.018998397936229594,0.011953352994698404,0
1649249149.2533367,0.016845703125,-0.00640869140625,0.97979736328125,0.9799631228430007,-1.708984375,-2.62451171875,3.41796875,3.4119689598080285,0.019085952611931134,0.012053964120226954,0
1649249149.2600753,0.016845703125,-0.00640869140625,0.97979736328125,0.9799631228430007,-4.21142578125,-2.86865234375,-13.12255859375,5.692653186899777,0.019182525233190972,0.012163656401686042,0
1649249149.2658803,0.01446533203125,-0.0069580078125,0.97796630859375,0.978098032125604,-0.67138671875,-0.30517578125,1.708984375,11.40851403328507,0.019287037088361103,0.01229206241910913,0
1649249149.2720933,0.01446533203125,-0.0069580078125,0.97796630859375,0.9824744849404526,1.3427734375,2.9296875,-0.91552734375,9.040829300376867,0.019369453155377414,0.012402184878920653,0
1649249149.2779229,0.0142822265625,-0.00439453125,0.98236083984375,0.9824744849404526,-1.52587890625,2.50244140625,2.44140625,3.6052098207085836,0.019460192626866046,0.012524747688032993,0
1649249149.2835329,0.01409912109375,-0.00714111328125,0.9788818359375,0.9790094123362055,-5.06591796875,-3.2958984375,-2.01416015625,4.003273518507467,0.01954109796497505,0.012635926784960956,0
1649249149.2891324,0.01409912109375,-0.00714111328125,0.9788818359375,0.9790094123362055,4.39453125,4.2724609375,2.44140625,2.749293366590627,0.01961882239265833,0.012743865513115758,0
1649249149.295143,0.0157470703125,-0.00732421875,0.98309326171875,0.9832466504598606,0.3662109375,0.3662109375,4.39453125,6.720799421858289,0.019706308659806382,0.01285913680096817,0
1649249149.300982,0.0157470703125,-0.00732421875,0.98309326171875,0.9832466504598606,4.638671875,1.8310546875,2.25830078125,6.448097783155387,0.019798370158241596,0.01297461415183465,0
1649249149.3071015,0.0157470703125,-0.00732421875,0.98309326171875,0.9832466504598606,5.43212890625,-0.6103515625,-2.01416015625,4.62459637195181,0.019888843547960278,0.013088623827324558,0
1649249149.3130033,0.0164794921875,-0.0069580078125,0.977783203125,0.9779468185176848,4.82177734375,-2.5634765625,3.35693359375,6.1585047315595,0.019991313361970242,0.013215429541128157,0
1649249149.318835,0.0164794921875,-0.0069580078125,0.977783203125,0.9779468185176848,-0.30517578125,-1.03759765625,-2.13623046875,5.886650181239983,0.02008563727576984,0.013330124059451129,0
1649249149.324806,0.01263427734375,-0.00750732421875,0.97869873046875,0.97880906713315,1.28173828125,8.72802734375,2.13623046875,9.396639327660942,0.020173027784039732,0.013450968088187005,0
1649249149.3304634,0.01263427734375,-0.00750732421875,0.97869873046875,0.9825084905949114,-1.28173828125,1.64794921875,1.5869140625,3.9186281541197565,0.020247806802217383,0.013570588318218476,0
1649249149.3358808,0.01519775390625,-0.0076904296875,0.98236083984375,0.9825084905949114,2.99072265625,6.65283203125,2.5634765625,6.588970567416062,0.02032318805140676,0.013680472223042058,0
1649249149.3413274,0.01519775390625,-0.0054931640625,0.9781494140625,0.9782828950799582,3.90625,0.8544921875,3.662109375,6.814651044670315,0.020405957991897594,0.01379138167107768,0
1649249149.3469205,0.01519775390625,-0.0054931640625,0.9781494140625,0.9782828950799582,-8.056640625,3.7841796875,-6.53076171875,2.281278270389497,0.020488369213126134,0.013902258300185997,0
1649249149.3522813,0.01666259765625,-0.0032958984375,0.97906494140625,0.9792122673853653,-2.38037109375,1.46484375,-4.45556640625,6.848460035485021,0.020577987997967284,0.01401777231213565,0
1649249149.3576417,0.01666259765625,-0.0032958984375,0.97906494140625,0.9792122673853653,-2.685546875,5.06591796875,1.28173828125,2.332948590529345,0.020665863521571737,0.014126528615399815,0
1649249149.3632343,0.01666259765625,-0.0032958984375,0.97906494140625,0.9792122673853653,-3.11279296875,2.0751953125,1.52587890625,7.91694444035208,0.02075795405107783,0.01424099880105536,0
1649249149.368833,0.01666259765625,-0.0032958984375,0.97906494140625,0.9792122673853653,1.953125,0.42724609375,-4.69970703125,6.818749754544681,0.020850433902523946,0.014356465117179787,0
1649249149.3745334,0.01739501953125,-0.005859375,0.980712890625,0.9808846480692449,-1.89208984375,2.44140625,2.3193359375,10.08835620673554,0.02094973705970915,0.014478343548209734,0
1649249149.3797967,0.01739501953125,-0.005859375,0.980712890625,0.9810614162444429,2.0751953125,2.38037109375,5.67626953125,7.985581965584665,0.02104383505502483,0.014591925224420042,0
1649249149.3854535,0.01611328125,-0.008056640625,0.98089599609375,0.9810614162444429,3.96728515625,-5.615234375,3.84521484375,4.963775784020376,0.02113739025662653,0.01470969523799371,0
1649249149.3906975,0.01483154296875,-0.00750732421875,0.97979736328125,0.9799383693256679,1.3427734375,-2.99072265625,-4.0283203125,6.079971680167398,0.02121918446937343,0.014821653304385608,0
1649249149.3959005,0.01483154296875,-0.00750732421875,0.97979736328125,0.9799383693256679,-0.48828125,0.9765625,-6.34765625,4.9903472469576595,0.02129655467433622,0.014932547075135697,0
1649249149.4010513,0.01373291015625,-0.00274658203125,0.97796630859375,0.9780665812094287,-2.86865234375,-0.91552734375,-0.3662109375,7.74954223819088,0.021370429363742005,0.015042894372173073,0
1649249149.4062002,0.01373291015625,-0.00274658203125,0.97796630859375,0.9780665812094287,0.91552734375,-1.46484375,-0.1220703125,1.222228051422167,0.021441066543047782,0.015152997885496509,0
1649249149.4113677,0.01483154296875,-0.00714111328125,0.979248046875,0.979386393347504,2.25830078125,3.35693359375,4.8828125,3.0748637006372066,0.021514937827305403,0.015264087539323514,0
1649249149.4165332,0.01483154296875,-0.00714111328125,0.979248046875,0.979386393347504,-4.150390625,-0.67138671875,-2.86865234375,8.694885928923167,0.02159129670326365,0.01537505184096368,0
1649249149.4217322,0.01483154296875,-0.00714111328125,0.979248046875,0.979386393347504,0.244140625,-0.54931640625,4.0283203125,3.701066390575081,0.02166844766907161,0.015487566468267234,0
1649249149.4268932,0.01483154296875,-0.00714111328125,0.979248046875,0.979386393347504,5.43212890625,1.220703125,5.859375,2.362304990278763,0.021745061145338695,0.015599694378162774,0
1649249149.4321308,0.0157470703125,-0.00677490234375,0.980712890625,0.9808627036253531,2.8076171875,2.74658203125,-0.18310546875,9.173565710357922,0.02182450947293546,0.015712895375470704,0
1649249149.43834,0.0157470703125,-0.00677490234375,0.980712890625,0.9808627036253531,3.11279296875,-0.3662109375,2.13623046875,3.084540714964179,0.021915249424637295,0.015838917026833533,0
1649249149.4439814,0.0157470703125,-0.00677490234375,0.980712890625,0.9808627036253531,-2.50244140625,8.7890625,1.220703125,3.0105865368990536,0.022005794147844426,0.01596518872862691,0
1649249149.4502404,0.015380859375,-0.00494384765625,0.98126220703125,0.9813951963468139,5.4931640625,8.7890625,3.90625,3.4413221091334103,0.02209888915240299,0.01609709360421969,0
1649249149.455975,0.015380859375,-0.00494384765625,0.98126220703125,0.9813951963468139,-2.44140625,3.0517578125,2.3193359375,5.362764315549023,0.022191218959051184,0.016230028215305368,0
1649249149.4620953,0.015380859375,-0.00494384765625,0.98126220703125,0.9813951963468139,1.40380859375,-3.7841796875,-3.2958984375,6.724678351641004,0.022281135825323872,0.01636002143221488,0
1649249149.4676661,0.015380859375,-0.00494384765625,0.98126220703125,0.9813951963468139,-2.5634765625,3.173828125,-7.568359375,7.824411847859435,0.02237449241511058,0.01649554367663791,0
1649249149.4731228,0.0135498046875,-0.00640869140625,0.98126220703125,0.9813766797109302,1.52587890625,-2.0751953125,-0.79345703125,9.915912067863639,0.022454225312685594,0.016619091603200804,0
1649249149.479087,0.0135498046875,-0.00640869140625,0.98126220703125,0.9813766797109302,2.3193359375,0.732421875,-3.35693359375,3.682904014049216,0.022527419321704656,0.016740583646038112,0
1649249149.4846592,0.0135498046875,-0.00640869140625,0.98126220703125,0.9813766797109302,-1.0986328125,0.6103515625,0.67138671875,7.296445960556359,0.022610082000028342,0.016878267798619864,0
1649249149.4900641,0.0150146484375,-0.0062255859375,0.98016357421875,0.9802983371470351,2.62451171875,0.67138671875,4.8828125,5.511444193100249,0.02268772278330289,0.017001391354621614,0
1649249149.4953773,0.0150146484375,-0.0062255859375,0.98016357421875,0.9802983371470351,-1.52587890625,-2.99072265625,-3.90625,8.742527154864495,0.022768271213863045,0.017123319250278466,0
1649249149.5007923,0.0150146484375,-0.0062255859375,0.98016357421875,0.9802983371470351,6.8359375,0.18310546875,4.7607421875,2.1405856831970436,0.02284729466191493,0.017243358667629688,0
1649249149.506479,0.0150146484375,-0.0062255859375,0.98016357421875,0.9802983371470351,0.79345703125,2.01416015625,3.173828125,7.403642444875941,0.022930961073143408,0.01737090419044346,0
1649249149.5122163,0.01373291015625,-0.00567626953125,0.9810791015625,0.981191630814202,5.43212890625,4.150390625,-0.3662109375,3.002532684631065,0.02301373967929976,0.017503201974137163,0
1649249149.517577,0.01373291015625,-0.00567626953125,0.9810791015625,0.9819296709207095,0.91552734375,0.1220703125,-8.72802734375,1.8522938117057517,0.023090732043783646,0.017632442326358688,0
1649249149.5228279,0.0135498046875,-0.0069580078125,0.9818115234375,0.9819296709207095,0.244140625,2.50244140625,5.67626953125,14.054131667048987,0.0231624887092039,0.017754093595493348,0
1649249149.528087,-0.00897216796875,-0.0260009765625,0.97906494140625,0.9794512290415929,-1.3427734375,-5.4931640625,13.73291015625,17.72312126533336,0.023174467016360722,0.017875302241729535,0
1649249149.533325,-0.00897216796875,-0.0260009765625,0.97906494140625,0.9794512290415929,0.54931640625,3.7841796875,5.126953125,4.19769259376206,0.023127211461542174,0.017997235508757314,0
1649249149.5385783,0.022705078125,0.0091552734375,0.9814453125,0.9817506002201376,1.77001953125,-0.67138671875,3.23486328125,3.0675859065256503,0.023163143087003846,0.018118355364636386,0
1649249149.5438402,0.022705078125,0.0091552734375,0.9814453125,0.9817506002201376,1.52587890625,2.62451171875,-5.92041015625,6.251263490756527,0.023283150811039377,0.018241101342208077,0
1649249149.549231,0.03314208984375,0.0054931640625,0.982177734375,0.9827520922758887,2.8076171875,-2.9296875,-1.64794921875,7.717026027636045,0.023429183100233786,0.01836324735789313,0
1649249149.5544858,0.03314208984375,0.0054931640625,0.982177734375,0.9827520922758887,1.8310546875,-0.732421875,0.48828125,3.553693024416415,0.02360964979743585,0.018491316270464783,0
1649249149.5597131,0.01116943359375,-0.01116943359375,0.9788818359375,0.9790092753503314,0.8544921875,0.79345703125,1.3427734375,4.405114886661654,0.023725671228021383,0.018615254949087404,0
1649249149.564892,0.01116943359375,-0.01116943359375,0.9788818359375,0.9790092753503314,-0.8544921875,1.64794921875,4.69970703125,1.8167573322921406,0.02378370866063051,0.018738686563163694,0
1649249149.570036,0.0150146484375,-0.0084228515625,0.97979736328125,0.9799485992586731,3.662109375,-7.14111328125,1.64794921875,7.365808028098432,0.02385103070992045,0.01886116052532095,0
1649249149.5751736,0.0150146484375,-0.0084228515625,0.97979736328125,0.9799485992586731,-4.2724609375,4.82177734375,1.40380859375,2.015084719142966,0.023928164038807154,0.01898388628736047,0
1649249149.5803182,0.015380859375,-0.00421142578125,0.982177734375,0.9823071865990967,3.11279296875,-1.0986328125,7.38525390625,5.675285007865394,0.02400634672085289,0.019107182421672766,0
1649249149.5854661,0.015380859375,-0.00421142578125,0.982177734375,0.9823071865990967,-3.7841796875,-2.74658203125,-0.732421875,4.792717389990376,0.024085541037493385,0.019230992284766768,0
1649249149.5906181,0.01812744140625,-0.002197265625,0.97833251953125,0.9785029130669605,-1.46484375,2.86865234375,-7.2021484375,8.7807934326726,0.02417164250073256,0.0193549918316721,0
1649249149.5957816,0.01812744140625,-0.002197265625,0.97833251953125,0.9812201967694328,-3.0517578125,-1.3427734375,-3.7841796875,3.777282335636182,0.024264961371954996,0.019479666050662793,0
1649249149.6009183,0.01519775390625,-0.00677490234375,0.9810791015625,0.9812201967694328,-6.4697265625,0.18310546875,-2.25830078125,3.9072035579294973,0.0243510531654465,0.019605259909744065,0
1649249149.6060503,0.01519775390625,-0.00677490234375,0.9810791015625,0.9783092155444058,-2.01416015625,2.25830078125,-4.638671875,6.198600175711947,0.024429036559013184,0.01973041119718649,0
1649249149.6112,0.0164794921875,-0.00640869140625,0.9781494140625,0.9783092155444058,1.64794921875,-3.7841796875,-2.99072265625,5.799303476669777,0.024510663373803254,0.019856520386428347,0
1649249149.6167893,0.01519775390625,-0.00860595703125,0.97943115234375,0.9795868600597012,-2.86865234375,4.8828125,6.40869140625,10.84400818707035,0.02459815843758406,0.019992162843600007,0
1649249149.6219792,0.01519775390625,-0.00860595703125,0.97943115234375,0.9795868600597012,2.0751953125,-0.79345703125,-0.3662109375,6.915582177348054,0.024678044130268972,0.020121670914308932,0
1649249149.6271126,0.0150146484375,-0.005859375,0.98236083984375,0.9824930491365372,4.82177734375,3.35693359375,3.11279296875,7.694788106488291,0.024755539736361243,0.02024846935620278,0
1649249149.6323051,0.0150146484375,-0.005859375,0.98236083984375,0.9824930491365372,0.244140625,-2.50244140625,-10.25390625,2.9575296483363567,0.02483347493398469,0.020377167995880317,0
1649249149.6374416,0.01593017578125,-0.00421142578125,0.9810791015625,0.9812174632211835,-2.62451171875,-5.92041015625,1.15966796875,3.6874529948713906,0.024912959888752084,0.020504946815813913,0
1649249149.6425872,0.01593017578125,-0.00421142578125,0.9810791015625,0.9812174632211835,-3.96728515625,2.5634765625,-3.23486328125,5.613575565955208,0.02499495978554478,0.020633396254119776,0
1649249149.6477585,0.013916015625,-0.00750732421875,0.97686767578125,0.9769956352993917,4.2724609375,1.0986328125,2.74658203125,6.881020250911265,0.025071633463085163,0.020762015339015383,0
1649249149.6531484,0.013916015625,-0.00750732421875,0.97686767578125,0.9769956352993917,-0.42724609375,-2.13623046875,2.3193359375,2.166533123693707,0.025145398925815243,0.020895109564076614,1
1649249149.6585152,0.01556396484375,-0.00732421875,0.97833251953125,0.9784837249307313,1.52587890625,2.9296875,-5.31005859375,3.6031426130726176,0.025224329823686276,0.021029971523023057,1
1649249149.663943,0.01556396484375,-0.00732421875,0.97833251953125,0.9784837249307313,-3.72314453125,-2.62451171875,1.15966796875,5.079503972549605,0.025307769486971665,0.021165424840796334,1
1649249149.6697903,0.015380859375,-0.00933837890625,0.9803466796875,0.9805117992813834,-2.685546875,-0.54931640625,-3.173828125,7.380207954645428,0.025395159776962828,0.0213086133643586,1
1649249149.6752665,0.015380859375,-0.00933837890625,0.9803466796875,0.9805117992813834,2.8076171875,2.86865234375,2.13623046875,6.162737589157858,0.025483345780230593,0.021454469065523726,1
1649249149.6806915,0.015380859375,-0.00933837890625,0.9803466796875,0.9805117992813834,2.8076171875,4.33349609375,7.62939453125,4.775976601437899,0.025566394200723153,0.02159228972198409,1
1649249149.6871393,0.015380859375,-0.00640869140625,0.97833251953125,0.978474404843079,7.99560546875,-4.638671875,-0.48828125,5.898977595984981,0.025654774559370708,0.02173945137124545,1
1649249149.6931942,0.015380859375,-0.00640869140625,0.97833251953125,0.978474404843079,-0.244140625,4.08935546875,-16.90673828125,17.631555521744197,0.025751053814019542,0.021900343383834828,1
1649249149.6997855,0.015380859375,-0.00640869140625,0.97833251953125,0.978474404843079,7.38525390625,0.91552734375,-3.5400390625,9.647416898671501,0.025849261954135727,0.022065079661485063,1
1649249149.7061346,-0.06829833984375,-0.018310546875,0.98162841796875,0.9841718804741908,-1.0986328125,-2.0751953125,-0.30517578125,8.33794744226037,0.025679643447801936,0.02223024522989013,1
1649249149.7117345,-0.06829833984375,-0.018310546875,0.98162841796875,0.9841718804741908,4.08935546875,6.28662109375,-3.2958984375,4.8984277898518815,0.02525501618947601,0.022388581764314113,1
1649249149.7171662,-0.08111572265625,-0.00384521484375,0.98272705078125,0.9860765702907933,-1.0986328125,5.859375,7.99560546875,10.317288645194083,0.0248470962033025,0.022525367102002966,1
1649249149.7226143,-0.08111572265625,-0.00384521484375,0.98272705078125,0.9860765702907933,0.9765625,-5.79833984375,1.953125,7.090068214583345,0.024404318457527552,0.022659788824732137,1
1649249149.7280276,-0.2113037109375,-0.00970458984375,0.99078369140625,1.0131119190279962,-1.52587890625,3.2958984375,-0.1220703125,5.485020004555901,0.023613365185156,0.022789669877923857,1
1649249149.7337377,-0.2113037109375,-0.00970458984375,0.99078369140625,0.9817479876770104,-0.244140625,-11.29150390625,9.09423828125,10.220609828144822,0.02246221119276015,0.022915176627105054,1
1649249149.739258,-0.20709228515625,0.00164794921875,0.95965576171875,0.9817479876770104,0.6103515625,4.39453125,-3.72314453125,21.0291579964609,0.02125704074569512,0.023041107924000666,1
1649249149.7446666,-0.23309326171875,-0.01904296875,0.978515625,1.0060755099328478,-14.6484375,8.72802734375,-5.9814453125,8.206221586412106,0.020056955647305585,0.02315374295206586,1
1649249149.7502406,-0.23309326171875,-0.01904296875,0.978515625,1.0060755099328478,-9.21630859375,1.52587890625,-7.9345703125,15.185492904910625,0.018805879066349007,0.0232580367914101,1
1649249149.7555928,-0.525146484375,-0.00128173828125,0.99114990234375,1.121676692198099,-21.6064453125,-7.14111328125,3.11279296875,10.215688054218965,0.01665362131461734,0.023358688313518557,1
1649249149.7607691,-0.525146484375,-0.00128173828125,0.99114990234375,1.121676692198099,3.47900390625,-8.7890625,10.7421875,13.594544924589993,0.01391752347262809,0.0234383286098628,1
1649249149.76604,-0.525146484375,-0.00128173828125,0.99114990234375,1.121676692198099,6.8359375,-0.1220703125,13.0615234375,29.557341801044892,0.011226874928979669,0.02350274372160131,1
1649249149.7714245,-0.525146484375,-0.00128173828125,0.99114990234375,1.121676692198099,26.9775390625,-15.13671875,1.0986328125,18.958859663423752,0.008417782759352122,0.023555284922703496,1
1649249149.7769382,-0.3900146484375,-0.0205078125,0.99188232421875,1.0660030682258619,-10.92529296875,8.36181640625,9.33837890625,12.159483815345736,0.005903344870603178,0.023594632732210772,1
1649249149.7821014,-0.3900146484375,-0.0205078125,0.99188232421875,1.0660030682258619,-6.89697265625,-4.39453125,15.44189453125,9.586406332550116,0.0038019375715521164,0.02362077886729186,1
1649249149.7872016,-0.5408935546875,0.00457763671875,0.95672607421875,1.0990503051955491,-19.10400390625,-9.6435546875,8.4228515625,33.428270278276905,0.0014219016666174866,0.023634134561125807,1
1649249149.7922728,-0.5408935546875,0.00457763671875,0.95672607421875,1.117288699935096,-22.39990234375,10.009765625,26.0009765625,19.016736865547905,-0.001311256921326276,0.023634414110176145,1
1649249149.7973135,-0.444580078125,-0.00274658203125,1.0250244140625,1.117288699935096,21.30126953125,-24.84130859375,6.9580078125,48.52049239554654,-0.0038062464373069815,0.023621457784605723,1
1649249149.8023508,-0.444580078125,-0.00274658203125,1.0250244140625,1.100720154533533,-0.8544921875,17.9443359375,7.2021484375,34.26867209618198,-0.006044673144060653,0.023596658471093955,1
1649249149.8074272,-0.53118896484375,0.0054931640625,0.96405029296875,1.100720154533533,-6.2255859375,5.2490234375,37.7197265625,29.453937408009054,-0.008514976580045186,0.023559798567616426,1
1649249149.8124974,-0.53118896484375,0.0054931640625,0.96405029296875,1.0621699353455147,9.1552734375,1.0986328125,35.21728515625,36.38381381271679,-0.011207329400349408,0.023509816913587868,1
1649249149.8175552,-0.4625244140625,0.00146484375,0.9561767578125,1.0621699353455147,-4.39453125,0.1220703125,15.5029296875,36.622873898790836,-0.013722350813623052,0.02344672157755323,1
1649249149.822609,-0.4625244140625,0.00146484375,0.9561767578125,1.0621699353455147,32.65380859375,-7.50732421875,26.79443359375,53.30074775781414,-0.016061601949331816,0.023371404315146817,1
1649249149.8276892,-0.4625244140625,0.00146484375,0.9561767578125,1.0621699353455147,60.6689453125,-14.2822265625,18.12744140625,44.685446485273836,-0.01839853732235497,0.023284348242024126,1
1649249149.832748,-0.31988525390625,-0.01318359375,1.07135009765625,1.1181643057077468,22.39990234375,-16.357421875,42.3583984375,33.4624096076551,-0.02038687785534421,0.02318578272546188,1
1649249149.8378053,-0.31988525390625,-0.01318359375,1.07135009765625,1.1181643057077468,-1.0986328125,21.30126953125,31.6162109375,36.65175108362848,-0.02200418711436214,0.02307862013975665,1
1649249149.8428643,-0.3834228515625,-0.0120849609375,0.93182373046875,1.0076976699615205,30.70068359375,-20.1416015625,30.8837890625,41.22932710788242,-0.023783960881701205,0.022962749806363977,1
1649249149.8483663,-0.3834228515625,-0.0120849609375,0.93182373046875,1.0076976699615205,18.06640625,-7.38525390625,29.296875,47.193399527896204,-0.02586923144554021,0.02282772871941168,1
1649249149.8537664,-0.39202880859375,-0.02069091796875,1.03179931640625,1.1039585726784449,38.4521484375,-19.04296875,31.6162109375,55.88747664817778,-0.02792382603365695,0.022685201556915516,1
1649249149.859145,-0.39202880859375,-0.02069091796875,1.03179931640625,1.1039585726784449,27.4658203125,9.765625,22.03369140625,25.597681742620093,-0.030024495768884663,0.02252994474523566,1
1649249149.8645036,-0.39202880859375,-0.02069091796875,1.03179931640625,1.1039585726784449,5.79833984375,-34.60693359375,28.9306640625,42.994838077636416,-0.03212638057448203,0.022363332011965775,1
1649249149.8699098,-0.39202880859375,-0.02069091796875,1.03179931640625,1.1039585726784449,42.6025390625,-17.51708984375,38.9404296875,45.33844073739194,-0.03424565023306059,0.02218393163629794,1
1649249149.8753207,-0.39202880859375,-0.02069091796875,1.03179931640625,1.1039585726784449,48.88916015625,-27.03857421875,31.18896484375,56.94926783892353,-0.03636594802810578,0.021992979322570255,1
1649249149.8807209,-0.39202880859375,-0.02069091796875,1.03179931640625,1.1039585726784449,-6.89697265625,-7.38525390625,39.97802734375,90.12962553109026,-0.03848166594252689,0.021791008913434527,1
1649249149.8861094,-0.39202880859375,-0.02069091796875,1.03179931640625,1.1039585726784449,22.94921875,5.859375,29.541015625,59.836185166428756,-0.04059336477803299,0.021578036490707227,1
1649249149.891481,-0.39202880859375,-0.02069091796875,1.03179931640625,1.1039585726784449,-28.3203125,6.2255859375,44.37255859375,49.991109176764375,-0.04270216613804223,0.021354004831517944,1
1649249149.8971367,-0.39202880859375,-0.02069091796875,1.03179931640625,1.1039585726784449,-14.0380859375,7.50732421875,40.22216796875,55.763891281322124,-0.04480433134449413,0.021119387999395174,1
1649249149.9030006,-0.29534912109375,0.01043701171875,0.93621826171875,0.9817559106621899,-2.25830078125,-5.31005859375,31.25,54.479099739232964,-0.04685885896469699,0.02084541272595024,1
1649249149.909145,-0.29534912109375,0.01043701171875,0.93621826171875,0.9817559106621899,-21.78955078125,15.19775390625,55.908203125,30.32231231047005,-0.04852097517141374,0.020577031415851026,1
1649249149.9152977,-0.1834716796875,0.025634765625,1.0740966796875,1.0899553549442809,-41.07666015625,22.216796875,49.4384765625,76.0158750916118,-0.050084735768905375,0.020254999195854457,1
1649249149.9214184,-0.1834716796875,0.025634765625,1.0740966796875,0.9682475563664112,27.03857421875,-12.20703125,44.61669921875,26.915396669757556,-0.051149048093066085,0.019961372506522253,1
1649249149.9276593,-0.13897705078125,0.0465087890625,0.95709228515625,0.9682475563664112,37.17041015625,-5.859375,12.14599609375,100.13224306589764,-0.05217721136432374,0.01963190535440759,1
1649249149.933268,-0.098876953125,0.06866455078125,0.88897705078125,0.8970906694470763,-4.57763671875,-8.9111328125,32.470703125,38.020248495681486,-0.05289262140286155,0.019315879507145584,1
1649249149.9394555,-0.098876953125,0.06866455078125,0.88897705078125,0.8970906694470763,21.484375,-43.0908203125,48.40087890625,44.30366215186166,-0.053504086477914825,0.018986895507772675,1
1649249149.9449856,-0.140625,0.05072021484375,0.95562744140625,0.9672495735783252,-25.7568359375,15.380859375,35.70556640625,46.0317582764698,-0.05417140567442402,0.018686881574820197,1
1649249149.9508607,-0.140625,0.05072021484375,0.95562744140625,0.9672495735783252,31.8603515625,-7.568359375,8.544921875,61.86863770190047,-0.05494984978577122,0.018384855623759567,1
1649249149.9573643,-0.140625,0.05072021484375,0.95562744140625,0.9672495735783252,25.2685546875,-17.9443359375,39.36767578125,28.592479031358245,-0.05592003831407055,0.018002403379961177,1
1649249149.9626973,-0.140625,0.05072021484375,0.95562744140625,0.9672495735783252,-1.28173828125,-16.90673828125,19.47021484375,42.793131784035374,-0.05668121570488438,0.01769765838889802,1
1649249149.967885,-0.140625,0.05072021484375,0.95562744140625,0.9672495735783252,-5.126953125,-9.21630859375,29.6630859375,44.31778624442541,-0.05741661036154255,0.017399322632007126,1
1649249149.973497,-0.15289306640625,0.09521484375,1.0740966796875,1.0890940425606757,29.72412109375,-1.28173828125,21.30126953125,59.25655597518851,-0.05817865931749111,0.017099207359206243,1
1649249149.9791353,-0.15289306640625,0.09521484375,1.0740966796875,1.0890940425606757,-20.08056640625,27.52685546875,28.50341796875,37.96411250485953,-0.059065294633910526,0.016759255284683278,1
1649249149.9843953,-0.15289306640625,0.09521484375,1.0740966796875,1.0890940425606757,-3.173828125,-13.5498046875,26.79443359375,31.179706670018753,-0.05990833270334406,0.016431250557387797,1
1649249149.9895535,-0.15289306640625,0.09521484375,1.0740966796875,0.9662552616924862,6.8359375,-1.28173828125,28.01513671875,44.41288056558141,-0.06069858748378465,0.016119561487790462,1
1649249149.9946995,-0.169921875,0.0640869140625,0.94903564453125,0.9662552616924862,34.3017578125,-6.9580078125,15.9912109375,37.968135483403785,-0.06152981034392724,0.01580483306168227,1
1649249149.9998424,-0.14923095703125,0.064453125,0.90582275390625,0.9202928584711668,6.9580078125,11.962890625,15.56396484375,57.646727667257494,-0.06235023390763672,0.01548638341255804,1
1649249150.0050056,-0.14923095703125,0.064453125,0.90582275390625,0.9202928584711668,-12.5732421875,16.90673828125,31.005859375,34.81455156866122,-0.0631209555795067,0.01516237770068421,1
1649249150.010179,-0.14703369140625,0.04742431640625,1.10687255859375,1.1176022696661916,-48.15673828125,15.0146484375,59.26513671875,30.200007815075804,-0.06388734529173234,0.014833827346572313,1
1649249150.0153127,-0.14703369140625,0.04742431640625,1.10687255859375,1.1176022696661916,-31.25,17.51708984375,46.32568359375,59.67680995139664,-0.06464223180228146,0.014503885130516623,1
1649249150.0204625,-0.0611572265625,0.02508544921875,1.00048828125,1.0026695801917511,24.7802734375,-8.7890625,39.48974609375,72.82780727864699,-0.06517746307508787,0.014170135891104631,1
1649249150.0256166,-0.0611572265625,0.02508544921875,1.00048828125,1.0026695801917511,7.50732421875,9.765625,25.5126953125,19.80155814763854,-0.06549293800344458,0.013833109199937858,1
1649249150.0307558,-0.01373291015625,0.04193115234375,0.9788818359375,0.9798757385947491,12.75634765625,21.17919921875,8.72802734375,33.224043147199154,-0.065685533118085,0.013495757262941308,1
1649249150.0359344,-0.01373291015625,0.04193115234375,0.9788818359375,0.9798757385947491,-8.97216796875,-13.36669921875,21.66748046875,28.583813488563163,-0.06575665815034881,0.01315537674677889,1
1649249150.0410562,-0.01373291015625,0.04193115234375,0.9788818359375,0.9798757385947491,-8.11767578125,12.51220703125,17.39501953125,43.12560322933958,-0.06582716763659846,0.012817578426923926,1
1649249150.0462217,-0.01373291015625,0.04193115234375,0.9788818359375,0.9798757385947491,-4.638671875,17.9443359375,10.80322265625,37.39443264554439,-0.06589803728275001,0.012477689847021361,1
1649249150.0515292,0.06427001953125,0.00933837890625,0.96734619140625,0.9695238495051688,-22.0947265625,-20.6298828125,2.74658203125,24.433967105687213,-0.06576829799450934,0.012139664015258683,1
1649249150.0568068,0.06427001953125,0.00933837890625,0.96734619140625,0.9695238495051688,-26.4892578125,28.9306640625,20.56884765625,22.723856718011167,-0.06542246944445651,0.011786703854248654,1
1649249150.0620697,-0.0172119140625,0.06390380859375,1.02593994140625,1.0280723272762191,0.6103515625,9.70458984375,5.2490234375,8.531614568277645,-0.0652991978204227,0.011444246636100781,1
1649249150.0673072,-0.0172119140625,0.06390380859375,1.02593994140625,1.0280723272762191,-11.962890625,-19.53125,0.3662109375,32.594545009057235,-0.06538978157186648,0.011100348276431884,1
1649249150.0725443,-0.0172119140625,0.06390380859375,1.02593994140625,1.0280723272762191,-23.37646484375,31.31103515625,22.39990234375,36.702383736261986,-0.0654799590629409,0.010757518744947054,1
1649249150.077787,-0.0172119140625,0.06390380859375,1.02593994140625,0.9749622241368247,-10.80322265625,14.6484375,36.92626953125,25.142558263555852,-0.06557007910305401,0.010414435615044761,1
1649249150.083598,-0.13494873046875,0.010986328125,0.96551513671875,0.9749622241368247,-46.875,12.5732421875,39.85595703125,45.21506455699156,-0.06600447097298456,0.010038813422993235,1
1649249150.088924,0.01959228515625,0.04266357421875,0.9788818359375,0.9800069831032497,14.0380859375,2.8076171875,10.55908203125,20.921263306203194,-0.06631606337759877,0.009681409826673617,1
1649249150.0941746,0.01959228515625,0.04266357421875,0.9788818359375,0.9800069831032497,-39.6728515625,8.97216796875,46.7529296875,37.20537116885383,-0.0662126764873392,0.009331738152966767,1
1649249150.0994818,-0.14630126953125,0.04632568359375,0.984375,0.9962651610148192,20.81298828125,10.8642578125,26.0009765625,25.183493037530557,-0.06654760799574433,0.008980806681603712,1
1649249150.104721,-0.14630126953125,0.04632568359375,0.984375,0.9962651610148192,16.54052734375,-49.74365234375,36.31591796875,37.75950682848398,-0.0673175698830164,0.008628550391108821,1
1649249150.1099634,-0.14630126953125,0.04632568359375,0.984375,0.9962651610148192,-35.33935546875,-10.3759765625,31.06689453125,35.44524409603037,-0.06808400879526744,0.008273881429548342,1
1649249150.1152618,-0.14630126953125,0.04632568359375,0.984375,0.9962651610148192,-15.93017578125,-40.22216796875,27.4658203125,44.59360675748663,-0.0688596562758903,0.007910863360258737,1
1649249150.120535,0.0128173828125,0.01373291015625,0.9422607421875,0.9424479743684848,-9.765625,39.85595703125,23.3154296875,26.32745645732646,-0.06920989001810085,0.007548596973042795,1
1649249150.1261153,0.0128173828125,0.01373291015625,0.9422607421875,0.9424479743684848,-38.39111328125,-53.40576171875,30.6396484375,45.51524645945542,-0.06914197259175126,0.007182043887417151,1
1649249150.132065,0.0809326171875,0.04156494140625,1.0455322265625,1.0494833822694203,16.66259765625,-28.62548828125,12.20703125,50.52302804748247,-0.06887073420512024,0.0067827442188714195,1
1649249150.1388996,0.07781982421875,0.02197265625,0.9884033203125,0.9917055239681245,-4.2724609375,-13.00048828125,13.00048828125,54.704322952189436,-0.0683349740866106,0.00631970033820148,1
1649249150.1451762,0.07781982421875,0.02197265625,0.9884033203125,0.9917055239681245,-14.16015625,-22.5830078125,11.90185546875,40.48586641757159,-0.06785107524774503,0.005896284635299481,1
1649249150.1512768,0.16168212890625,0.03662109375,0.97137451171875,0.9854190262684923,19.83642578125,-8.36181640625,20.1416015625,22.539581610190663,-0.06711657588311937,0.005482368787402832,1
1649249150.1589189,0.16168212890625,0.03662109375,0.97137451171875,0.9854190262684923,38.818359375,41.32080078125,6.591796875,51.979669085605515,-0.06613583707076032,0.00507822451336206,1
1649249150.164466,0.16168212890625,0.03662109375,0.97137451171875,0.9854190262684923,3.41796875,4.39453125,0.244140625,27.939571952367135,-0.06490176064835396,0.004578137055063887,1
1649249150.1697636,0.05694580078125,0.02801513671875,0.92962646484375,0.9317902318922838,28.3203125,-35.70556640625,12.6953125,20.12393060650668,-0.06431407778291032,0.00423079838567004,1
1649249150.1750238,0.05694580078125,0.02801513671875,0.92962646484375,0.9317902318922838,11.53564453125,-4.638671875,5.79833984375,10.265706855993361,-0.06401405463111587,0.0038927452700535815,1
1649249150.1803162,-0.1102294921875,0.03717041015625,0.9697265625,0.9766789576709249,8.7890625,-17.63916015625,9.70458984375,34.15221063543664,-0.06415425086743198,0.003555525713405035,1
1649249150.185532,-0.1102294921875,0.03717041015625,0.9697265625,0.9884373255134643,25.7568359375,-6.28662109375,22.88818359375,27.209497300312695,-0.06473253268632106,0.0032174452135990145,1
1649249150.1907585,-0.15655517578125,-0.0040283203125,0.9759521484375,0.9884373255134643,26.0009765625,-16.17431640625,13.5498046875,26.582895190615346,-0.0654292138206074,0.0028775409983846697,1
1649249150.1959705,-0.15655517578125,-0.0040283203125,0.9759521484375,0.9717586638593373,19.4091796875,-19.47021484375,5.43212890625,38.269627032773855,-0.06624552606081124,0.0025342508409227135,1
1649249150.2012062,-0.11444091796875,-0.0076904296875,0.9649658203125,0.9717586638593373,3.72314453125,-17.822265625,19.6533203125,30.49645264899199,-0.06695336643315386,0.002186336033908812,1
1649249150.2091386,0.08074951171875,-0.0205078125,1.01513671875,1.0185497591040256,-2.86865234375,26.2451171875,14.404296875,18.438376228072055,-0.06704174340848112,0.001834744165183485,1
1649249150.2149029,0.08074951171875,-0.0205078125,1.01513671875,1.0185497591040256,20.56884765625,14.34326171875,0.9765625,60.43238736750306,-0.06638674560963409,0.0012935931120678411,1
1649249150.2209098,0.08074951171875,-0.0205078125,1.01513671875,1.0185497591040256,23.13232421875,-34.60693359375,6.89697265625,17.584163900016325,-0.06593304864509264,0.000921868950990474,1
1649249150.226642,0.2479248046875,-0.01116943359375,0.9276123046875,0.9602374981398069,16.54052734375,-16.2353515625,-15.0146484375,32.85092193305586,-0.06489823841548059,0.0005099549454061388,1
1649249150.232013,0.2479248046875,-0.01116943359375,0.9276123046875,0.9602374981398069,5.7373046875,-15.5029296875,-8.6669921875,22.725905843291766,-0.06353516459057573,0.0001568958594028759,1
1649249150.2373435,0.19097900390625,-0.01373291015625,0.93218994140625,0.9516510177651106,46.630859375,3.2958984375,1.52587890625,19.269621441512317,-0.06236410676501691,-0.0001790213143976968,1
1649249150.2426574,0.19097900390625,-0.01373291015625,0.93218994140625,0.9516510177651106,-10.80322265625,-28.4423828125,1.89208984375,25.49589781395849,-0.06134735615341924,-0.0005083342310304301,1
1649249150.2479904,0.16864013671875,-0.04119873046875,1.011474609375,1.0262639604483168,7.2021484375,-15.13671875,-22.27783203125,22.396575930208577,-0.06039367141784169,-0.0008311828966672402,1
1649249150.2543664,0.16864013671875,-0.04119873046875,1.011474609375,1.0262639604483168,15.07568359375,9.521484375,-18.5546875,16.268474091144096,-0.05943807303265203,-0.0011706958492756925,1
1649249150.2599075,0.16864013671875,-0.04119873046875,1.011474609375,1.0262639604483168,13.73291015625,-29.72412109375,-9.1552734375,15.766220867892523,-0.05839578848099336,-0.0015348334024928925,1
1649249150.2653258,0.0413818359375,-0.0347900390625,0.99462890625,0.9960971159036651,-10.80322265625,26.4892578125,-6.7138671875,34.77499117751733,-0.057818294953904115,-0.001854385114589744,1
1649249150.2706409,0.0413818359375,-0.0347900390625,0.99462890625,0.9960971159036651,3.173828125,-34.24072265625,-20.32470703125,44.41191595119191,-0.057597607825300656,-0.002162138547980034,1
1649249150.2761543,0.12396240234375,-0.0245361328125,0.99114990234375,0.9991730720572145,2.25830078125,28.80859375,-27.2216796875,18.450292739768418,-0.05716220135218464,-0.002464339364221614,1
1649249150.2820303,0.12396240234375,-0.0245361328125,0.99114990234375,0.9991730720572145,0.244140625,13.36669921875,-3.23486328125,13.910794533512604,-0.056459118888597004,-0.002786554633692777,1
1649249150.2880688,-0.1336669921875,-0.03826904296875,0.9345703125,0.9448561019840772,-33.87451171875,-11.41357421875,4.0283203125,17.03985259451262,-0.056488415648345836,-0.0031275000527115782,1
1649249150.2935607,-0.1336669921875,-0.03826904296875,0.9345703125,0.9448561019840772,12.26806640625,-8.11767578125,4.2724609375,24.80829467977584,-0.05727668780309614,-0.0034629525895176153,1
1649249150.2988534,-0.1336669921875,-0.03826904296875,0.9345703125,0.9448561019840772,-1.28173828125,22.52197265625,15.44189453125,32.02066246529837,-0.057989048727904446,-0.003770099497404771,1
1649249150.3041413,-0.1336669921875,-0.03826904296875,0.9345703125,0.991519444003019,9.09423828125,8.11767578125,7.080078125,36.92788364886448,-0.058696055712061934,-0.004078691702690875,1
1649249150.3098102,0.08477783203125,-0.06903076171875,0.9854736328125,0.991519444003019,-16.9677734375,-7.50732421875,4.7607421875,6.737407682985974,-0.05882828195899492,-0.004396592449286013,1
1649249150.3152125,0.169189453125,-0.0758056640625,1.00360107421875,1.020581543006595,-1.15966796875,0.54931640625,7.38525390625,18.924638932183925,-0.05811024362628814,-0.004727211189761925,1
1649249150.3205435,0.169189453125,-0.0758056640625,1.00360107421875,1.020581543006595,-14.22119140625,19.4091796875,4.57763671875,25.07319464302941,-0.05720848967030179,-0.005034526811477145,1
1649249150.3264515,0.31549072265625,-0.06097412109375,1.01055908203125,1.060415907934788,28.3203125,-1.5869140625,-1.15966796875,21.083295845355252,-0.05579528828820912,-0.005364016448504792,1
1649249150.3318107,0.31549072265625,-0.06097412109375,1.01055908203125,1.060415907934788,7.080078125,35.46142578125,-0.54931640625,22.02861864865674,-0.05407962154276902,-0.005662771238135537,1
1649249150.337333,0.31549072265625,-0.06097412109375,1.01055908203125,1.060415907934788,24.658203125,-0.91552734375,-37.7197265625,32.242106532556036,-0.052411041797313374,-0.005944377242954578,1
1649249150.3426533,0.31549072265625,-0.06097412109375,1.01055908203125,1.060415907934788,-14.46533203125,-11.71875,-24.0478515625,39.260363140088266,-0.050657765626965556,-0.006230769315662293,1
1649249150.3479452,0.31549072265625,-0.06097412109375,1.01055908203125,1.060415907934788,0.54931640625,-11.29150390625,-33.99658203125,44.21014459400825,-0.04899001328885788,-0.00649414919395934,1
1649249150.353343,0.31549072265625,-0.06097412109375,1.01055908203125,1.0517314333782126,-12.87841796875,-16.11328125,-34.66796875,30.07479067069222,-0.047313234688772354,-0.0067500667435596235,1
1649249150.3587022,0.277587890625,-0.00823974609375,1.014404296875,1.0517314333782126,14.16015625,6.103515625,-44.00634765625,66.02238050577765,-0.04570501086709555,-0.007002300014164154,1
1649249150.363972,0.15618896484375,-0.03753662109375,0.941162109375,0.9547722800675025,-17.2119140625,-2.25830078125,-57.06787109375,31.7090413310694,-0.04455073509598151,-0.0072424696300751375,1
1649249150.3692524,0.15618896484375,-0.03753662109375,0.941162109375,0.9547722800675025,12.5732421875,-15.44189453125,-44.61669921875,45.15256939311921,-0.043729517739848234,-0.007474551569747197,1
1649249150.3746655,0.05548095703125,-0.002197265625,0.977783203125,0.9793584414721278,-28.564453125,7.14111328125,-16.05224609375,33.419242312912786,-0.04317022782925051,-0.007704164499632474,1
1649249150.3806581,0.05548095703125,-0.002197265625,0.977783203125,0.9793584414721278,-3.41796875,-31.73828125,-12.939453125,11.456089088987273,-0.042843808099860325,-0.007957194366402106,1
1649249150.3860784,-0.23236083984375,-0.0648193359375,1.00341796875,1.0320081037543491,-14.892578125,-6.591796875,-5.7373046875,19.432198172448054,-0.043341515949578024,-0.008199683468076048,1
1649249150.391356,-0.23236083984375,-0.0648193359375,1.00341796875,1.0320081037543491,36.0107421875,-44.49462890625,-4.7607421875,55.83719466744847,-0.044577747787116095,-0.00843356236315427,1
1649249150.3976753,-0.2105712890625,-0.0465087890625,1.07830810546875,1.0996598135592244,-10.92529296875,-14.7705078125,15.625,27.39363615607232,-0.04574614213197492,-0.008671824424765641,1
1649249150.4036791,-0.1600341796875,-0.07012939453125,0.93017578125,0.9464438993778863,14.58740234375,24.2919921875,8.6669921875,19.082541795692567,-0.04697535154991783,-0.00897935937200734,1
1649249150.409098,-0.1600341796875,-0.07012939453125,0.93017578125,0.9464438993778863,-9.21630859375,-14.22119140625,6.2255859375,25.479527866759184,-0.04790458138450049,-0.009254816979119847,1
1649249150.414392,-0.06903076171875,-0.10125732421875,0.94097900390625,0.9489255911628742,13.97705078125,-51.81884765625,32.65380859375,43.76952723273719,-0.04851321972819278,-0.009511004462073015,1
1649249150.4197135,-0.06903076171875,-0.10125732421875,0.94097900390625,0.9489255911628742,-9.21630859375,21.05712890625,27.9541015625,34.37363231712452,-0.048877357759920415,-0.00976787264889549,1
1649249150.4250145,0.10693359375,-0.1131591796875,1.0616455078125,1.0730009215645153,-29.60205078125,22.94921875,22.705078125,8.173699053220394,-0.04877652150025824,-0.010027728621763182,1
1649249150.4303393,0.10693359375,-0.1131591796875,1.0616455078125,1.0730009215645153,11.29150390625,-21.6064453125,16.6015625,18.67725645908071,-0.04820528152777115,-0.010286767341732696,1
1649249150.435624,0.11553955078125,-0.0919189453125,0.9598388671875,0.9711277625863028,6.7138671875,-14.404296875,6.53076171875,17.636942476562364,-0.047616624397051055,-0.010540309171784518,1
1649249150.4409046,0.11553955078125,-0.0919189453125,0.9598388671875,0.9711277625863028,-37.65869140625,27.40478515625,16.54052734375,14.382297073569168,-0.04700731726916274,-0.010789812661006447,1
1649249150.4461858,0.11553955078125,-0.0919189453125,0.9598388671875,0.9711277625863028,-7.2021484375,18.1884765625,9.21630859375,10.146716117966045,-0.046397321471886244,-0.011036379471647949,1
1649249150.4515216,0.11553955078125,-0.0919189453125,0.9598388671875,1.0158817810284293,5.37109375,11.962890625,-9.765625,46.34405483009266,-0.045786113616486546,-0.011280206106262514,1
1649249150.4568322,0.22613525390625,-0.0758056640625,0.98748779296875,1.0158817810284293,20.751953125,-20.3857421875,-5.67626953125,43.037835849268106,-0.04487060718383873,-0.011523117816218315,1
1649249150.4621532,0.2783203125,-0.04339599609375,0.99481201171875,1.0339227957091248,-12.26806640625,30.6396484375,-16.357421875,38.26169273449577,-0.04352723377814982,-0.011758522709288757,1
1649249150.4674404,0.2783203125,-0.04339599609375,0.99481201171875,1.0339227957091248,-3.47900390625,13.916015625,-18.5546875,31.541478266503987,-0.04206094903929625,-0.011983976333503538,1
1649249150.4727473,0.248291015625,-0.00860595703125,0.98858642578125,1.0193260578320682,1.953125,2.9296875,-17.88330078125,26.02711111826691,-0.04066108555707615,-0.012203872012198323,1
1649249150.4780202,0.248291015625,-0.00860595703125,0.98858642578125,1.0193260578320682,36.865234375,6.04248046875,-32.77587890625,36.084839187428656,-0.039349039012449794,-0.012415271138365498,1
1649249150.4833071,0.14630126953125,-0.005859375,0.9722900390625,0.9832529246343505,-31.494140625,-32.2265625,-18.1884765625,47.5147617139986,-0.038308723029331304,-0.012620010597560162,1
1649249150.4885817,0.14630126953125,-0.005859375,0.9722900390625,0.9832529246343505,8.72802734375,-3.173828125,-21.30126953125,34.67898126765204,-0.037535935785854235,-0.01282032254634242,1
1649249150.493856,0.0574951171875,-0.02362060546875,0.9810791015625,0.9830461967912785,4.5166015625,-6.34765625,-31.06689453125,23.073388059693187,-0.036998203038820066,-0.013016986716219632,1
1649249150.4991362,0.0574951171875,-0.02362060546875,0.9810791015625,0.9830461967912785,16.54052734375,-25.146484375,-26.67236328125,19.153956227712495,-0.036694285096018575,-0.013211755163432507,1
1649249150.5044034,0.0574951171875,-0.02362060546875,0.9810791015625,0.9830461967912785,26.55029296875,-27.587890625,-18.98193359375,18.781778109166222,-0.03639136783021968,-0.013404283740088374,1
1649249150.5097654,0.0574951171875,-0.02362060546875,0.9810791015625,0.9830461967912785,-9.94873046875,-34.912109375,5.92041015625,23.468156474363433,-0.036087175729335286,-0.013596016547263305,1
1649249150.5151048,0.0574951171875,-0.02362060546875,0.9810791015625,0.9830461967912785,5.06591796875,5.2490234375,10.1318359375,36.79306342597442,-0.03577649978979025,-0.013790174903687334,1
1649249150.52039,0.0574951171875,-0.02362060546875,0.9810791015625,0.9693053733992422,10.8642578125,7.75146484375,-1.28173828125,31.100391847895605,-0.035472705218126066,-0.013978409337980299,1
1649249150.525691,-0.14813232421875,-0.0867919921875,0.9539794921875,0.9693053733992422,4.638671875,-8.7890625,11.474609375,20.854918900475937,-0.03571169883798575,-0.014166124654052436,1
1649249150.5310225,0.009521484375,-0.08514404296875,1.03216552734375,1.0357151358141723,15.9912109375,-16.357421875,20.69091796875,28.28964677790398,-0.03608151008666027,-0.01435767059456396,1
1649249150.5363202,0.009521484375,-0.08514404296875,1.03216552734375,1.0357151358141723,-0.732421875,1.64794921875,28.99169921875,25.685432861390677,-0.036030905044754036,-0.01454930309880179,1
1649249150.5416,0.09228515625,-0.08148193359375,0.94775390625,0.9557161306467507,4.57763671875,-22.4609375,5.18798828125,49.243268460648665,-0.03576076320314314,-0.01473980082423251,1
1649249150.5468578,0.09228515625,-0.08148193359375,0.94775390625,0.9557161306467507,7.9345703125,-2.74658203125,14.83154296875,29.01963343790373,-0.03527752238733228,-0.014925792810796146,1
1649249150.5527575,0.0933837890625,-0.041748046875,0.95965576171875,0.9650920228027693,40.6494140625,-40.10009765625,0.732421875,24.7441672378362,-0.03474605367227923,-0.015126232038418105,1
1649249150.558135,0.0933837890625,-0.041748046875,0.95965576171875,0.9650920228027693,5.79833984375,11.3525390625,3.7841796875,20.400995270208277,-0.03422847246110905,-0.015317378270191348,1
1649249150.5634394,0.2647705078125,-0.0673828125,0.98309326171875,1.0203510310008561,-3.173828125,3.662109375,-9.27734375,15.797025708122026,-0.03327884316968266,-0.015496370745970413,1
1649249150.5687938,0.2647705078125,-0.0673828125,0.98309326171875,1.0203510310008561,17.9443359375,-36.4990234375,-3.60107421875,22.220401681064267,-0.031858692862442695,-0.01567105993732549,1
1649249150.574071,0.2647705078125,-0.0673828125,0.98309326171875,1.0203510310008561,20.263671875,-16.54052734375,-18.98193359375,28.931822934661433,-0.030462025504675694,-0.01583543117673404,1
1649249150.5793478,0.2647705078125,-0.0673828125,0.98309326171875,1.0424442955012643,25.390625,-3.0517578125,-20.93505859375,29.37972751073634,-0.029065547525533475,-0.01599241419114767,1
1649249150.5846875,0.31622314453125,-0.03753662109375,0.99261474609375,1.0424442955012643,1.8310546875,-7.080078125,-11.1083984375,23.6259671220172,-0.02751357301895041,-0.016143550700704536,1
1649249150.589966,0.355224609375,-0.03497314453125,0.9521484375,1.0168550983191835,-13.36669921875,-6.65283203125,-29.78515625,49.51907522712706,-0.02574054474098375,-0.01628417378888559,1
1649249150.595313,0.355224609375,-0.03497314453125,0.9521484375,1.0168550983191835,20.1416015625,-22.5830078125,-26.85546875,40.20331582040049,-0.023842000889999326,-0.016416673951655116,1
1649249150.6007652,0.19720458984375,-0.02783203125,0.9136962890625,0.9351498173370544,-0.48828125,10.009765625,-16.845703125,45.943582936505884,-0.02238410971040139,-0.016538667211618112,1
1649249150.6066525,0.19720458984375,-0.02783203125,0.9136962890625,0.9351498173370544,2.25830078125,-1.77001953125,-33.87451171875,29.663965031662386,-0.021226310222118627,-0.016666686853355848,1
1649249150.6119802,0.05401611328125,-0.072509765625,0.98492431640625,0.9890658803402957,7.14111328125,-28.74755859375,-25.2685546875,42.85567751576221,-0.020530502071778756,-0.016782341056870473,1
1649249150.6172414,0.05401611328125,-0.072509765625,0.98492431640625,0.9890658803402957,3.662109375,0.67138671875,-32.40966796875,19.166010935250338,-0.02024666114448337,-0.0168894778639887,1
1649249150.6225307,0.0889892578125,-0.08148193359375,0.97064208984375,0.9781127031607545,1.89208984375,14.404296875,-20.32470703125,33.633306413273644,-0.019869193878548685,-0.016995364950609028,1
1649249150.6278663,0.0889892578125,-0.08148193359375,0.97064208984375,0.9781127031607545,13.7939453125,-8.11767578125,-29.052734375,34.14801083422356,-0.019394703769648913,-0.01710004236633811,1
1649249150.63315,0.0889892578125,-0.08148193359375,0.97064208984375,0.9781127031607545,11.71875,-24.7802734375,-19.4091796875,25.858313086335098,-0.01892415996553609,-0.017201350683512893,1
1649249150.6384225,0.0889892578125,-0.08148193359375,0.97064208984375,0.9785207302851182,-24.658203125,6.53076171875,-19.83642578125,27.63868399059016,-0.018455037679814268,-0.01729987614079214,1
1649249150.6437442,0.21112060546875,-0.07965087890625,0.9521484375,0.9785207302851182,17.63916015625,-5.7373046875,-26.85546875,30.220724173502575,-0.017655589785135817,-0.017396069464086276,1
1649249150.6492665,0.32940673828125,-0.06756591796875,0.9334716796875,0.992191175769395,11.962890625,-14.09912109375,-16.66259765625,11.973006972983558,-0.016229043823841494,-0.01748549692373979,1
1649249150.6548002,0.32940673828125,-0.06756591796875,0.9334716796875,0.992191175769395,10.009765625,-15.380859375,-27.83203125,23.216878109585487,-0.014361284345795866,-0.01757222158467642,1
1649249150.6601062,0.4266357421875,-0.07232666015625,0.99810791015625,1.0878734313318408,-15.93017578125,3.11279296875,-20.263671875,27.450557282528596,-0.012318729641265236,-0.01764430138110853,1
1649249150.6653903,0.4266357421875,-0.07232666015625,0.99810791015625,1.0878734313318408,18.5546875,4.21142578125,-18.12744140625,21.417774662221674,-0.010065169844892807,-0.017703419090878237,1
1649249150.6707263,0.36456298828125,-0.031494140625,0.99627685546875,1.0613508496538564,11.3525390625,-1.89208984375,-26.123046875,34.079322598003394,-0.007955176530231256,-0.01775147630952022,1
1649249150.6760116,0.36456298828125,-0.031494140625,0.99627685546875,1.0613508496538564,7.32421875,-25.5126953125,-20.751953125,29.534331266931662,-0.006026453025697265,-0.017788461272918922,1
1649249150.6812887,0.36456298828125,-0.031494140625,0.99627685546875,1.0613508496538564,1.77001953125,2.50244140625,-37.29248046875,21.256188725621808,-0.00410164085769793,-0.01781519832381554,1
1649249150.6865957,0.36456298828125,-0.031494140625,0.99627685546875,1.0613508496538564,12.8173828125,-13.00048828125,-34.5458984375,26.72754511048586,-0.0021697882839362137,-0.017831814761739683,1
1649249150.6918912,0.3570556640625,0.02655029296875,1.008544921875,1.070213308053908,-2.74658203125,14.34326171875,-14.95361328125,33.273789998014735,-0.00025791273219510913,-0.017838246777049437,1
1649249150.6972077,0.3570556640625,0.02655029296875,1.008544921875,0.9856600547875045,2.44140625,12.02392578125,-3.84521484375,19.119013048689997,0.0016299865383189172,-0.01783461949148899,1
1649249150.70249,0.2625732421875,-0.01318359375,0.949951171875,0.9856600547875045,2.74658203125,-4.638671875,-7.9345703125,7.456787712872248,0.0032768183446023613,-0.017821578327226133,1
1649249150.7077987,0.26422119140625,0.0439453125,0.96405029296875,1.000568336422852,-4.638671875,14.09912109375,7.87353515625,24.777041069393945,0.004675535798014607,-0.01780046364600387,1
1649249150.7131097,0.26422119140625,0.0439453125,0.96405029296875,1.000568336422852,-13.7939453125,-2.9296875,0.42724609375,20.40482958045952,0.006078880782297347,-0.017771903944780544,1
1649249150.7183723,0.11041259765625,0.02435302734375,0.94830322265625,0.9550199022859344,-0.79345703125,-2.0751953125,-18.06640625,16.19652716594181,0.0070659076372976415,-0.01773727210015728,1
1649249150.7236674,0.11041259765625,0.02435302734375,0.94830322265625,0.9550199022859344,-1.15966796875,12.20703125,10.31494140625,30.587079062174688,0.007650046398339327,-0.0176983446618921,1
1649249150.7289603,0.1300048828125,0.01025390625,0.9759521484375,0.9846263292174589,11.23046875,-1.64794921875,2.197265625,22.19868015627375,0.008283145733003039,-0.017656387257972243,1
1649249150.7342384,0.1300048828125,0.01025390625,0.9759521484375,0.9846263292174589,-3.11279296875,-3.84521484375,7.75146484375,12.872631345839295,0.00897248741966905,-0.017610638871432376,0
1649249150.7395418,0.157470703125,-0.02581787109375,1.00506591796875,1.0176546979564638,3.662109375,7.14111328125,11.474609375,16.46886412202791,0.009734749699418899,-0.017561035281034556,0
1649249150.7448194,0.157470703125,-0.02581787109375,1.00506591796875,1.0176546979564638,-12.5732421875,11.71875,16.90673828125,12.71671545078491,0.010565033961029258,-0.017507518688573587,0
1649249150.7501245,0.157470703125,-0.02581787109375,1.00506591796875,1.0176546979564638,-5.7373046875,2.0751953125,-8.72802734375,15.162538226803537,0.011396782436349895,-0.017449518352824493,0
1649249150.7555215,0.157470703125,-0.02581787109375,1.00506591796875,1.0176546979564638,-10.25390625,8.7890625,11.65771484375,23.21182319135114,0.012240094445587602,-0.017386226382509265,0
1649249150.7608588,0.157470703125,-0.02581787109375,1.00506591796875,1.0176546979564638,7.99560546875,10.80322265625,-14.404296875,28.713327425143564,0.013091253138554748,-0.017317766039496446,0
1649249150.766169,0.157470703125,-0.02581787109375,1.00506591796875,1.050944537199622,-4.33349609375,-5.79833984375,-18.4326171875,14.392007013783063,0.013927694606536534,-0.01724600739529554,0
1649249150.7714496,0.40008544921875,-0.02911376953125,0.97137451171875,1.050944537199622,7.75146484375,-4.69970703125,7.87353515625,9.596310550309349,0.01539798617886845,-0.01716867473358886,0
1649249150.77677,0.26165771484375,-0.06024169921875,0.98785400390625,1.0236939753147056,-0.91552734375,-5.37109375,-5.0048828125,18.597503251245836,0.017146335099823773,-0.017082691481957644,0
1649249150.7825985,0.26165771484375,-0.06024169921875,0.98785400390625,1.0236939753147056,-6.77490234375,10.009765625,-9.6435546875,14.703519890860784,0.018659834793652408,-0.016979135148441328,0
1649249150.7879467,0.22027587890625,-0.05657958984375,0.9840087890625,1.0099485183746029,0.9765625,3.35693359375,-4.82177734375,10.341091978492779,0.019968797496403567,-0.01687421729340547,0
1649249150.7932308,0.22027587890625,-0.05657958984375,0.9840087890625,1.0099485183746029,4.57763671875,-0.6103515625,-11.53564453125,23.3286874834891,0.021133853748324327,-0.016765519734142593,0
1649249150.7985182,0.1080322265625,-0.0736083984375,0.97943115234375,0.9881166633945564,1.28173828125,-5.859375,-1.03759765625,7.353913193856153,0.02200109886325663,-0.016651576227076817,0
1649249150.8038003,0.1080322265625,-0.0736083984375,0.97943115234375,0.9881166633945564,-0.67138671875,6.591796875,-1.89208984375,7.133806190757372,0.022572077599761542,-0.01653378574552944,0
1649249150.809116,0.1080322265625,-0.0736083984375,0.97943115234375,0.9881166633945564,-1.28173828125,0.18310546875,-11.8408203125,10.377771558891338,0.02314632746129064,-0.01641227668933845,0
1649249150.8143756,0.1080322265625,-0.0736083984375,0.97943115234375,0.9881166633945564,-2.86865234375,5.92041015625,12.63427734375,17.720598760158996,0.02371583805506816,-0.016288755678256252,0
1649249150.8197043,0.0333251953125,-0.0618896484375,0.97119140625,0.9737318135914972,1.89208984375,2.01416015625,4.7607421875,10.475844925464939,0.02408885439945152,-0.01616260785108716,0
1649249150.8249855,0.0333251953125,-0.0618896484375,0.97119140625,0.9882243709254167,2.38037109375,1.77001953125,2.3193359375,9.514635018902352,0.024266313695989083,-0.01603386030686866,0
1649249150.8304455,0.05328369140625,-0.0662841796875,0.98455810546875,0.9882243709254167,-0.30517578125,0.6103515625,-4.150390625,7.201372525073835,0.02449602536216844,-0.015904528565332407,0
1649249150.8361256,0.11737060546875,-0.03076171875,0.9810791015625,0.9885536636375576,3.173828125,3.35693359375,-0.67138671875,5.6631284798650485,0.02497591001156252,-0.015765412101250292,0
1649249150.8415172,0.11737060546875,-0.03076171875,0.9810791015625,0.9885536636375576,-4.33349609375,-4.21142578125,4.0283203125,7.1806505987279,0.02563228707003873,-0.015623902822148678,0
1649249150.846791,0.09320068359375,-0.04522705078125,0.9708251953125,0.9763367315625618,-3.72314453125,5.615234375,-2.9296875,3.7555224762976467,0.02618829756102059,-0.015487071306171538,0
1649249150.8520732,0.09320068359375,-0.04522705078125,0.9708251953125,0.9763367315625618,-2.685546875,1.708984375,7.01904296875,7.2603620931215325,0.02667968776950147,-0.015347701028337699,0
1649249150.8574054,0.09649658203125,-0.03094482421875,0.98419189453125,0.9893951979621967,7.14111328125,1.708984375,8.4228515625,4.163832495315073,0.027186686391360126,-0.01520373386373941,0
1649249150.8626735,0.09649658203125,-0.03094482421875,0.98419189453125,0.9893951979621967,5.43212890625,5.06591796875,-1.52587890625,10.007160126791875,0.02769593699485995,-0.015058915215799969,0
1649249150.867927,0.09649658203125,-0.03094482421875,0.98419189453125,0.9893951979621967,-0.6103515625,-0.30517578125,-6.16455078125,5.188347299158547,0.02820251883531455,-0.014912189072568027,0
1649249150.8732035,0.09649658203125,-0.03094482421875,0.98419189453125,0.9893951979621967,0.0,-1.89208984375,-11.65771484375,13.619732197132679,0.02871055009018164,-0.014762372274833194,0
1649249150.87852,-0.03424072265625,-0.01373291015625,0.9788818359375,0.9795767803688247,1.89208984375,-1.5869140625,-8.4228515625,5.581630833908401,0.028875037474790588,-0.014610222244364486,0
1649249150.883788,-0.03424072265625,-0.01373291015625,0.9788818359375,0.9866160529599839,-0.42724609375,-10.07080078125,-10.19287109375,10.072095383172007,0.028693323358311318,-0.014457465774663671,0
1649249150.8891485,0.0018310546875,-0.02838134765625,0.9862060546875,0.9866160529599839,-4.33349609375,0.18310546875,-10.8642578125,8.984822801128004,0.028607081367226783,-0.014304983153627118,0
1649249150.894427,0.00274658203125,-0.0377197265625,0.980712890625,0.9814418451048679,3.0517578125,0.91552734375,-15.869140625,14.225643918056806,0.02861925258912379,-0.01415282725928059,0
1649249150.8997269,0.00274658203125,-0.0377197265625,0.980712890625,0.9814418451048679,-5.859375,0.0,-7.9345703125,6.687737683502078,0.02863372053980129,-0.01400203380364284,0
1649249150.9050322,-0.0498046875,-0.02471923828125,0.97760009765625,0.9791800133661264,-2.0751953125,-3.35693359375,-15.380859375,8.958247797949472,0.028508738068921957,-0.013850271218557956,0
1649249150.9103265,-0.0498046875,-0.02471923828125,0.97760009765625,0.9791800133661264,-1.46484375,2.62451171875,-2.99072265625,10.101087861442121,0.028243821034266148,-0.013699334425040828,0
1649249150.9156337,-0.0684814453125,-0.0347900390625,0.9891357421875,0.9921136888698168,0.30517578125,3.7841796875,-15.380859375,8.817203821994912,0.027929542273341212,-0.013550085357567422,0
1649249150.9209225,-0.0684814453125,-0.0347900390625,0.9891357421875,0.9921136888698168,-8.056640625,1.77001953125,-15.07568359375,10.444326235787628,0.027568171273742337,-0.013403656904367844,0
1649249150.9262006,-0.0545654296875,-0.03167724609375,0.97613525390625,0.9781722077199314,4.638671875,-1.77001953125,-19.10400390625,8.997873863111929,0.02724379581195535,-0.013259161913049485,0
1649249150.9314818,-0.0545654296875,-0.03167724609375,0.97613525390625,0.9781722077199314,2.62451171875,2.685546875,-7.2021484375,10.814423869532456,0.02695529908669414,-0.01311588198764679,0
1649249150.9367857,-0.0545654296875,-0.03167724609375,0.97613525390625,0.9781722077199314,4.69970703125,1.64794921875,-4.7607421875,4.860253674711537,0.026667257690860424,-0.012974349920632592,0
1649249150.9420846,-0.0545654296875,-0.03167724609375,0.97613525390625,0.9781722077199314,-3.41796875,-0.8544921875,0.1220703125,5.180443157696032,0.026376978676125873,-0.012833256661052866,0
1649249150.9473546,-0.07049560546875,-0.01611328125,0.9708251953125,0.9735146778947922,-5.31005859375,2.62451171875,-11.90185546875,13.289555589250563,0.026047204046335537,-0.012695018836395802,0
1649249150.9526625,-0.07049560546875,-0.01611328125,0.9708251953125,0.979244075244961,-8.60595703125,7.38525390625,-11.90185546875,10.387100539806763,0.025674717071524356,-0.012558373851219,0
1649249150.9579804,-0.1644287109375,0.0040283203125,0.96533203125,0.979244075244961,-2.5634765625,-3.173828125,13.12255859375,9.096081438116038,0.025048241623153444,-0.012423110338369198,0
1649249150.96327,-0.087890625,-0.01007080078125,0.99810791015625,1.0020207499387142,-2.5634765625,9.3994140625,-14.83154296875,7.153622357237717,0.024379589704039972,-0.012292125472894079,0
1649249150.9686062,-0.087890625,-0.01007080078125,0.99810791015625,1.0020207499387142,6.9580078125,-6.2255859375,13.7939453125,7.136938717045968,0.023911229909572285,-0.012163457151620293,0
1649249150.9738843,-0.006591796875,-0.00970458984375,0.964599609375,0.9646709476585678,-1.28173828125,-2.197265625,2.74658203125,28.087646793139772,0.02366126610286301,-0.0120375987965745,0
1649249150.9791625,-0.006591796875,-0.00970458984375,0.964599609375,0.9646709476585678,2.197265625,1.708984375,5.92041015625,14.488234276385562,0.023626506874279585,-0.011912922130918475,0
1649249150.9845054,0.0355224609375,0.01922607421875,0.996826171875,0.9976441770971693,-1.220703125,2.0751953125,-6.591796875,8.668281566722253,0.02370338774198899,-0.01178714138866893,0
1649249150.989836,0.0355224609375,0.01922607421875,0.996826171875,0.9976441770971693,-7.75146484375,-0.06103515625,17.9443359375,14.05611953098102,0.02389355548802996,-0.011659737442354256,0
1649249150.9951515,-0.10089111328125,-0.02874755859375,0.9605712890625,0.9662828986561979,-5.31005859375,-2.5634765625,-8.056640625,13.03697221662401,0.02372065315284999,-0.011533802788223892,0
1649249151.0004277,-0.10089111328125,-0.02874755859375,0.9605712890625,0.9662828986561979,-2.62451171875,-3.662109375,-8.48388671875,14.23925472327771,0.023185131918580737,-0.011409316879114149,0
1649249151.0056875,-0.10089111328125,-0.02874755859375,0.9605712890625,0.9662828986561979,4.21142578125,2.01416015625,5.67626953125,9.325804378598763,0.022653892352536786,-0.011288634776549858,0
1649249151.01156,-0.10089111328125,-0.02874755859375,0.9605712890625,1.0004349634309126,2.62451171875,3.35693359375,-0.732421875,3.7654289099578078,0.02207120060484158,-0.011159480970364191,0
1649249151.0169299,0.17120361328125,0.03350830078125,0.985107421875,1.0004349634309126,-0.48828125,5.31005859375,-3.60107421875,14.026537581765112,0.02226209310174454,-0.011039116451701799,0
1649249151.0222082,0.12945556640625,0.013916015625,0.97833251953125,0.986958417531763,3.90625,5.9814453125,-8.544921875,7.127537007980044,0.02305877501203213,-0.01091902593651346,0
1649249151.0274856,0.12945556640625,0.013916015625,0.97833251953125,0.986958417531763,0.79345703125,-4.8828125,-7.99560546875,5.229826132034159,0.02374273481837008,-0.010795391424346278,0
1649249151.0327547,0.05328369140625,-0.00238037109375,0.976318359375,0.9777741849676295,1.953125,-0.9765625,-4.150390625,2.875138113602021,0.024225168090197258,-0.010668755732487375,0
1649249151.038075,0.05328369140625,-0.00238037109375,0.976318359375,0.9777741849676295,0.18310546875,-2.99072265625,-10.498046875,2.581577878730054,0.024508044094545767,-0.010539396673664067,0
1649249151.0433567,0.17230224609375,0.010986328125,0.98016357421875,0.9952534328701893,3.23486328125,-0.732421875,0.06103515625,4.110707578242856,0.02510364676709287,-0.010408409538587118,0
1649249151.048634,0.17230224609375,0.010986328125,0.98016357421875,0.9952534328701893,0.244140625,-7.568359375,1.77001953125,6.784792717400722,0.026014884584583342,-0.010273236782577673,0
1649249151.0540318,0.17230224609375,0.010986328125,0.98016357421875,0.9952534328701893,0.48828125,-2.25830078125,-7.14111328125,7.32218396214298,0.026930928768706508,-0.01013249368289236,0
1649249151.0594916,0.17230224609375,0.010986328125,0.98016357421875,0.9952534328701893,-0.3662109375,4.82177734375,-5.79833984375,3.833571471543507,0.027856708926265128,-0.00998530666412907,0
1649249151.0654702,0.17230224609375,0.010986328125,0.98016357421875,0.9952534328701893,-4.21142578125,-2.3193359375,-0.8544921875,18.356976453870864,0.028889543711557053,-0.009815229067962922,0
1649249151.0708597,0.17230224609375,0.010986328125,0.98016357421875,0.9790822689819595,-0.732421875,4.57763671875,-7.568359375,2.875138113602021,0.02984247778658755,-0.009652817532855731,0
1649249151.0761912,0.01409912109375,-0.013916015625,0.9788818359375,0.9790822689819595,2.86865234375,-1.52587890625,-4.21142578125,8.249686567537019,0.03034013425349258,-0.009492141318250205,0
1649249151.0814779,0.01373291015625,-0.01922607421875,0.9814453125,0.9817296655288803,1.64794921875,3.662109375,-0.3662109375,6.59744585784749,0.03041343853692524,-0.00933212794806632,0
1649249151.086815,0.01373291015625,-0.01922607421875,0.9814453125,0.9817296655288803,2.25830078125,-2.44140625,-2.25830078125,5.726906301630811,0.03048631853016559,-0.009170531686498683,0
1649249151.092117,-0.006591796875,-0.031494140625,0.98162841796875,0.9821556310705445,2.8076171875,0.42724609375,-4.39453125,13.172003278186853,0.030505300004733726,-0.009008408112469335,0
1649249151.097449,-0.006591796875,-0.031494140625,0.98162841796875,0.9821556310705445,-1.03759765625,-0.42724609375,2.5634765625,6.54699856224994,0.030470069294096902,-0.008845462740177307,0
1649249151.1027882,0.01629638671875,-0.01904296875,0.9814453125,0.9817653020488772,-0.8544921875,-2.9296875,-2.62451171875,11.009023324989366,0.03049586717679631,-0.00868337836155646,0
1649249151.1080596,0.01629638671875,-0.01904296875,0.9814453125,0.9817653020488772,-5.67626953125,-3.173828125,-5.37109375,6.673239110642876,0.03058253016206436,-0.008520973150507942,0
1649249151.1133616,0.02691650390625,-0.02197265625,0.9818115234375,0.9824261617851392,4.0283203125,4.5166015625,-4.0283203125,5.826859855889953,0.03069726680405438,-0.008358266189135285,0
1649249151.118625,0.02691650390625,-0.02197265625,0.9818115234375,0.9824261617851392,-1.953125,2.9296875,0.732421875,7.997934715593115,0.030838571416097693,-0.008196742653672724,0
1649249151.1239731,-0.00146484375,-0.02618408203125,0.97576904296875,0.9761213946713705,3.11279296875,-0.3662109375,3.72314453125,4.125633451201462,0.030906253625289537,-0.008032550714771988,0
1649249151.1292474,-0.00146484375,-0.02618408203125,0.97576904296875,0.9761213946713705,-0.91552734375,9.6435546875,2.74658203125,10.860999829702443,0.03089849058596883,-0.007868781486989756,0
1649249151.1345184,-0.00146484375,-0.02618408203125,0.97576904296875,0.9761213946713705,2.197265625,-1.708984375,5.79833984375,5.484340787166813,0.030890751993865706,-0.007705568944803499,0
1649249151.139858,-0.00146484375,-0.02618408203125,0.97576904296875,0.9761213946713705,3.41796875,-1.5869140625,3.72314453125,3.729642606799851,0.030882954379194416,-0.0075411529246257394,0
1649249151.1451275,-0.00146484375,-0.02618408203125,0.97576904296875,0.9761213946713705,2.01416015625,-2.44140625,1.3427734375,6.079665314911596,0.030875219628796913,-0.007378103431818949,0
1649249151.1505032,0.0146484375,0.021240234375,0.97869873046875,0.979038778240494,-0.6103515625,4.57763671875,-2.8076171875,11.380397291673384,0.030910379267879762,-0.007213324314888411,0
1649249151.1559463,0.0146484375,0.021240234375,0.97869873046875,0.979038778240494,0.42724609375,4.150390625,4.82177734375,1.0103116062772735,0.030989776845672168,-0.007045568454907173,0
1649249151.1612372,0.00274658203125,-0.00677490234375,0.97796630859375,0.9779936317579515,-5.0048828125,-0.48828125,5.37109375,7.714853407455387,0.031036290842166636,-0.0068797117687554405,0
1649249151.1665082,0.00274658203125,-0.00677490234375,0.97796630859375,0.9779936317579515,-0.91552734375,-0.18310546875,7.568359375,15.619873159445506,0.03105078040243825,-0.006715941972213586,0
1649249151.1717882,0.00274658203125,-0.00677490234375,0.97796630859375,0.9779936317579515,-1.77001953125,-0.8544921875,11.41357421875,8.46806429800184,0.03106529550132109,-0.00655180688108968,0
1649249151.1770813,0.00274658203125,-0.00677490234375,0.97796630859375,0.9779936317579515,1.953125,-0.18310546875,22.5830078125,21.564421222622745,0.03107981321954867,-0.006387565440752775,0
1649249151.1823897,0.00201416015625,-0.01373291015625,0.979248046875,0.9793464080553912,-1.28173828125,8.60595703125,16.6015625,12.048686137532272,0.03109247469546972,-0.006222214557342314,0
1649249151.1877437,0.00201416015625,-0.01373291015625,0.979248046875,0.9793464080553912,-1.46484375,-1.77001953125,20.44677734375,14.050552803241967,0.031103095090657007,-0.00605824012661555,0
1649249151.193045,0.019775390625,-0.01611328125,0.9730224609375,0.973356776005531,-1.52587890625,2.74658203125,8.4228515625,11.832952343265374,0.031161692473688163,-0.005890795022175807,0
1649249151.198314,0.019775390625,-0.01611328125,0.9730224609375,0.9896528240533509,0.30517578125,-5.126953125,6.53076171875,6.9206977514788806,0.031265847574104555,-0.005726395066045328,0
1649249151.2036088,0.05401611328125,0.01666259765625,0.988037109375,0.9896528240533509,-1.15966796875,1.220703125,2.86865234375,9.890897255957537,0.03146104485495016,-0.005560466494463401,0
1649249151.2089458,-0.01336669921875,0.024169921875,0.98272705078125,0.9831151052184386,2.13623046875,0.67138671875,11.8408203125,4.652704796606183,0.03156914008286549,-0.005392856524441217,0
1649249151.2142124,-0.01336669921875,0.024169921875,0.98272705078125,0.9831151052184386,7.99560546875,5.615234375,3.47900390625,3.7649342073464687,0.03149845850566635,-0.005226109399161904,0
1649249151.2195044,0.0025634765625,-0.0018310546875,0.9796142578125,0.979619323146951,-4.21142578125,1.77001953125,-3.41796875,5.746711972586138,0.03146999493765179,-0.005060209909097429,0
1649249151.2247643,0.0025634765625,-0.0018310546875,0.9796142578125,0.979619323146951,-2.86865234375,2.3193359375,-3.96728515625,7.369600210410076,0.0314835643657716,-0.00489359169023983,0
1649249151.2300436,0.02655029296875,-0.00860595703125,0.97723388671875,0.9776323695053192,-0.48828125,3.47900390625,1.953125,6.341197322398815,0.031560300034470856,-0.004727425880383253,0
1649249151.2353384,0.02655029296875,-0.00860595703125,0.97723388671875,0.9776323695053192,-4.39453125,-3.11279296875,-0.6103515625,5.565255029323666,0.031700840539997444,-0.0045599935908979955,0
1649249151.2411606,0.02655029296875,-0.00860595703125,0.97723388671875,0.9776323695053192,-0.30517578125,1.8310546875,3.23486328125,3.96963196814187,0.03185295876755845,-0.0043779298502678605,0
1649249151.246495,0.02655029296875,-0.00860595703125,0.97723388671875,0.9776323695053192,1.28173828125,-1.220703125,6.53076171875,2.943641492135619,0.031996854217140935,-0.00420490544040532,0
1649249151.2518058,-0.006591796875,0.00457763671875,0.980712890625,0.9807457266702788,-0.18310546875,0.3662109375,-1.46484375,5.288970112521956,0.03204965933400672,-0.004035447960896476,0
1649249151.2571275,-0.006591796875,0.00457763671875,0.980712890625,0.9821317521154845,2.9296875,0.54931640625,-0.3662109375,6.205507700035574,0.03201473665831145,-0.003865744603277989,0
1649249151.262424,-0.009521484375,0.01336669921875,0.98199462890625,0.9821317521154845,-10.6201171875,-2.0751953125,-5.7373046875,3.7146298961677098,0.03197165769233834,-0.003694676546920841,0
1649249151.2677484,-0.009521484375,0.01336669921875,0.98199462890625,0.9821317521154845,-4.45556640625,2.50244140625,-6.53076171875,4.912097847471874,0.03192139997554477,-0.003526051620865259,0
1649249151.2730255,-0.009521484375,0.01336669921875,0.98199462890625,0.9821317521154845,6.16455078125,-1.03759765625,1.52587890625,2.608851351704408,0.031870649647316895,-0.003356043073396037,0
1649249151.2783325,0.01171875,-0.005859375,0.98126220703125,0.9813496728102541,-2.62451171875,8.9111328125,-0.9765625,6.841384897071315,0.031876454027951695,-0.003187765349155597,0
1649249151.2835977,0.01171875,-0.005859375,0.98126220703125,0.9813496728102541,3.90625,-3.0517578125,-2.13623046875,5.3835637380859245,0.031938457759679295,-0.003018943475205699,0
1649249151.2890017,0.01007080078125,-0.00823974609375,0.9803466796875,0.9804330302567181,2.3193359375,1.89208984375,0.0,4.149492952095589,0.03199578495696187,-0.0028507357419612477,0
1649249151.2948868,0.01007080078125,-0.00823974609375,0.9803466796875,0.9804330302567181,-2.74658203125,-3.72314453125,0.9765625,3.9902243966506723,0.032052229216787964,-0.002671249381745523,0
1649249151.3002632,0.0087890625,-0.00750732421875,0.98052978515625,0.9805979130689174,5.43212890625,2.86865234375,3.23486328125,5.695270198042222,0.0321067947515985,-0.002485623886822797,0
1649249151.3055623,0.0087890625,-0.00750732421875,0.98052978515625,0.9805979130689174,3.7841796875,3.0517578125,9.765625,4.911339398019739,0.0321533268870553,-0.002315516967878921,0
1649249151.3112152,0.010986328125,-0.008056640625,0.977783203125,0.9778781116157655,5.4931640625,3.662109375,2.197265625,6.279506175585733,0.032207853786530904,-0.0021380531849747673,0
1649249151.3165777,0.010986328125,-0.008056640625,0.977783203125,0.9787557501459571,2.25830078125,6.53076171875,6.7138671875,2.670941953984505,0.03226835017267149,-0.001960533576639065,0
1649249151.3218694,0.009521484375,-0.00457763671875,0.97869873046875,0.9787557501459571,3.662109375,6.65283203125,5.859375,6.779574595977471,0.03232260099321138,-0.001789666396134015,0
1649249151.3271632,0.00933837890625,-0.00421142578125,0.98345947265625,0.9835128244130917,0.54931640625,3.90625,1.03759765625,6.4841056675875635,0.03237259804154746,-0.0016181609644658566,0
1649249151.3324308,0.00933837890625,-0.00421142578125,0.98345947265625,0.9835128244130917,-1.40380859375,3.41796875,1.953125,4.713953397131257,0.03242180465895217,-0.0014474507472184012,0
1649249151.3377414,0.00823974609375,-0.0087890625,0.98089599609375,0.9809699772103468,4.2724609375,1.64794921875,-5.37109375,5.42114518940104,0.03246809791016858,-0.0012765585410791924,0
1649249151.343016,0.00823974609375,-0.0087890625,0.98089599609375,0.9809699772103468,5.06591796875,1.89208984375,1.89208984375,6.901562269235425,0.03251191037998069,-0.0011038023287389676,0
1649249151.3482783,0.0281982421875,-0.0146484375,0.97833251953125,0.978848423585603,-2.0751953125,2.3193359375,-2.5634765625,10.123007731405243,0.03260780293203425,-0.0009324291055443634,0
1649249151.353579,0.0281982421875,-0.0146484375,0.97833251953125,0.978848423585603,-0.244140625,2.86865234375,-9.27734375,2.8009750746054114,0.03275649518764112,-0.0007600927439557828,0
1649249151.3589714,0.01702880859375,-0.0084228515625,0.97723388671875,0.9774185357880222,-4.33349609375,8.85009765625,-4.8828125,5.121864336525207,0.03287701643421315,-0.0005851922695510985,0
1649249151.3648171,0.01702880859375,-0.0084228515625,0.97723388671875,0.9774185357880222,-2.62451171875,-3.2958984375,-7.38525390625,7.798659462541573,0.032974663117784075,-0.00039638874637954423,0
1649249151.370264,0.030029296875,-0.01739501953125,0.98309326171875,0.9837055995632586,4.5166015625,-0.6103515625,-12.0849609375,13.920030516640328,0.03310716572741512,-0.00021032059331724771,0
1649249151.375555,0.030029296875,-0.01739501953125,0.98309326171875,0.9815558015490965,1.0986328125,2.86865234375,-5.43212890625,16.603918469375653,0.03326664453197736,-3.407244540904082e-05,0
