time,ax,ay,az,am,gx,gy,gz,gm,velx,distx,button
1649246821.5419004,-0.0889892578125,0.04522705078125,0.97357177734375,0.9786759319451244,-1.28173828125,-0.18310546875,-8.36181640625,2.8221748099845927,0,0,1
1649246821.546991,-0.0889892578125,0.04522705078125,0.97357177734375,0.9786759319451244,6.7138671875,-1.708984375,-3.0517578125,3.8306550987581067,-0.0007164028356783092,-2.883679646195625e-06,1
1649246821.551884,-0.093017578125,0.04266357421875,0.97210693359375,0.9774785628065726,-6.04248046875,1.220703125,-6.9580078125,6.579068929402471,-0.0011629034561337903,-7.494008818711637e-06,1
1649246821.5567613,-0.093017578125,0.04266357421875,0.97210693359375,0.9774785628065726,2.86865234375,-0.3662109375,0.48828125,8.41377986054257,-0.0016170243179658428,-1.427994768130221e-05,1
1649246821.561633,-0.09503173828125,0.0435791015625,0.97503662109375,0.9806256073791199,-0.79345703125,1.8310546875,1.89208984375,5.866046921640902,-0.0020748288952745497,-2.326773520466667e-05,1
1649246821.5664835,-0.09503173828125,0.0435791015625,0.97503662109375,0.9806256073791199,0.3662109375,1.89208984375,2.50244140625,7.71775009844887,-0.002536064203013666,-3.4457190094185075e-05,1
1649246821.571345,-0.09429931640625,0.04522705078125,0.97760009765625,0.9831784162269661,-2.99072265625,-9.6435546875,7.568359375,6.250071525164462,-0.0029962894914206117,-4.7905216773129825e-05,1
1649246821.5761945,-0.09429931640625,0.04522705078125,0.97760009765625,0.9831784162269661,0.732421875,-1.40380859375,3.90625,7.608614278441124,-0.0034538800682639703,-6.355504819310562e-05,1
1649246821.5810454,-0.09063720703125,0.0421142578125,0.973388671875,0.9785061167637634,4.39453125,0.30517578125,-2.38037109375,2.2141549251973944,-0.0039024090219754726,-8.139635172533903e-05,1
1649246821.5858958,-0.09063720703125,0.0421142578125,0.973388671875,0.9785061167637634,-1.77001953125,1.46484375,0.06103515625,7.518976364469967,-0.004342099433415569,-0.00010139383087108544,1
1649246821.5907469,-0.088623046875,0.041015625,0.96917724609375,0.9740846268561137,1.46484375,-1.953125,5.9814453125,5.7334075028405165,-0.004776626592501998,-0.0001234976382025292,1
1649246821.5956223,-0.088623046875,0.041015625,0.96917724609375,0.9740846268561137,-2.62451171875,5.0048828125,0.732421875,5.743145505955929,-0.005208997114095837,-0.00014785636588513298,1
1649246821.6004841,-0.09136962890625,0.0406494140625,0.9722900390625,0.9774194104939027,-2.0751953125,-0.8544921875,3.23486328125,5.410827705223313,-0.005646222307404969,-0.00017422507999740548,1
1649246821.6053479,-0.09136962890625,0.0406494140625,0.9722900390625,0.9774194104939027,-2.5634765625,-1.0986328125,-3.41796875,2.3448941299192563,-0.006089923241233919,-0.00020272108464259534,1
1649246821.6102214,-0.09136962890625,0.0406494140625,0.9722900390625,0.9774194104939027,-0.30517578125,-8.85009765625,-3.72314453125,6.67658772962621,-0.006535584754601587,-0.0002335119670606083,1
1649246821.615071,-0.09136962890625,0.0406494140625,0.9722900390625,0.9774194104939027,-2.3193359375,-7.75146484375,1.220703125,6.173307035395646,-0.006979307472647633,-0.00026632847723450596,1
1649246821.6199462,-0.09136962890625,0.0406494140625,0.9722900390625,0.9774194104939027,2.13623046875,-6.9580078125,4.39453125,7.069020021443433,-0.00742442438058788,-0.0003014131364481873,1
1649246821.6248305,-0.09136962890625,0.0406494140625,0.9722900390625,0.9774194104939027,-1.52587890625,0.9765625,1.0986328125,10.060623112372822,-0.007870870125771035,-0.00033878069082828467,1
1649246821.6296794,-0.0933837890625,0.04248046875,0.973388671875,0.978780173899873,1.03759765625,2.197265625,6.04248046875,7.0360061665877165,-0.008318624626554083,-0.0003780163337758118,1
1649246821.6345837,-0.0933837890625,0.04248046875,0.973388671875,0.978780173899873,-2.86865234375,-5.55419921875,-8.23974609375,10.176045126980611,-0.008776804337685462,-0.00041995497635573514,1
1649246821.6394653,-0.09283447265625,0.04248046875,0.9715576171875,0.9769068702049528,1.52587890625,2.86865234375,-2.25830078125,3.5552651072291748,-0.009227953531080857,-0.000463574930246409,1
1649246821.6443195,-0.09283447265625,0.04248046875,0.9715576171875,0.9769068702049528,0.8544921875,-0.8544921875,-8.4228515625,11.24952606686387,-0.009681180454208516,-0.0005097330457068967,1
1649246821.6492453,-0.09393310546875,0.04339599609375,0.9759521484375,0.9814220482645293,0.79345703125,0.9765625,-1.46484375,7.020104369477185,-0.010140985468751751,-0.0005585334391262787,1
1649246821.6541278,-0.09393310546875,0.04339599609375,0.9759521484375,0.9814220482645293,0.244140625,-0.30517578125,1.220703125,5.477543981002093,-0.010597246902761981,-0.0006088993649276571,1
1649246821.6590106,-0.095947265625,0.04412841796875,0.97723388671875,0.9829238344880918,-1.28173828125,-2.01416015625,-5.31005859375,9.95471984685583,-0.011063538287999108,-0.000662092001289933,1
1649246821.663864,-0.095947265625,0.04412841796875,0.97723388671875,0.9829238344880918,-2.0751953125,-1.03759765625,-1.5869140625,2.891933042109896,-0.011529857612913474,-0.000716995791697126,1
1649246821.6687527,-0.09375,0.04449462890625,0.97393798828125,0.9794508867313527,-0.244140625,2.38037109375,1.220703125,7.2344041498309615,-0.011991945473710075,-0.0007742930839620722,1
1649246821.6737342,-0.09375,0.04449462890625,0.97393798828125,0.9794508867313527,-3.72314453125,6.65283203125,2.38037109375,3.128907621576244,-0.012451206712285057,-0.0008341639764826957,1
1649246821.6788177,-0.093017578125,0.04248046875,0.971923828125,0.9772884874706214,-1.46484375,5.37109375,3.662109375,2.1613685558625213,-0.012929157237522304,-0.0008991139983350119,1
1649246821.6836934,-0.093017578125,0.04248046875,0.971923828125,0.9772884874706214,-0.1220703125,-0.8544921875,-3.23486328125,5.926384811493338,-0.013387646991759539,-0.0009639726269222784,1
1649246821.6885712,-0.091552734375,0.04376220703125,0.9774169921875,0.9826703468369465,-0.79345703125,-3.35693359375,0.91552734375,10.864086364079071,-0.013837444013915956,-0.001030320051361354,1
1649246821.6934674,-0.091552734375,0.04376220703125,0.9774169921875,0.9826703468369465,-3.60107421875,0.6103515625,-5.4931640625,4.0490742897026335,-0.01428639970254153,-0.0010992768100464775,1
1649246821.6983259,-0.0908203125,0.0428466796875,0.97576904296875,0.9809227249579812,0.6103515625,-8.72802734375,3.41796875,3.239466433036035,-0.014729211456142366,-0.001169728304272942,1
1649246821.7032015,-0.0908203125,0.0428466796875,0.97576904296875,0.9809227249579812,-2.8076171875,-2.13623046875,1.708984375,4.98437167559187,-0.015172128682024777,-0.001242640510031777,1
1649246821.708061,-0.0933837890625,0.041015625,0.97137451171875,0.976714521019653,1.77001953125,4.0283203125,3.2958984375,7.370358412734867,-0.01561954004864674,-0.001317430063958654,1
1649246821.7129169,-0.0933837890625,0.041015625,0.97137451171875,0.976714521019653,3.41796875,5.43212890625,-0.54931640625,3.16912963519218,-0.016073400460300036,-0.0013944464881704994,1
1649246821.7177775,-0.090087890625,0.04229736328125,0.968994140625,0.9740916484311886,-2.62451171875,5.126953125,2.685546875,7.699869810589096,-0.016518836011528037,-0.0014735744540958651,1
1649246821.722686,-0.090087890625,0.04229736328125,0.968994140625,0.9740916484311886,2.86865234375,0.8544921875,8.9111328125,7.099519542771166,-0.016961252767941914,-0.0015557839063291227,1
1649246821.7275453,-0.088623046875,0.0435791015625,0.9722900390625,0.9772927415010105,1.52587890625,-0.18310546875,4.08935546875,5.636754470045831,-0.017395449671312235,-0.001639257106222888,1
1649246821.7324078,-0.088623046875,0.0435791015625,0.9722900390625,0.9772927415010105,-0.3662109375,-2.38037109375,1.28173828125,9.236093467721046,-0.017826193230575882,-0.0017248527631182741,1
1649246821.7372818,-0.09100341796875,0.0443115234375,0.97430419921875,0.9795477557560105,-2.3193359375,3.23486328125,-4.57763671875,6.724401359431984,-0.01826396353135351,-0.0018128086152502231,1
1649246821.7421422,-0.09100341796875,0.0443115234375,0.97430419921875,0.9795477557560105,0.91552734375,2.44140625,-2.38037109375,4.3506551238273286,-0.01870662379951682,-0.0019027250737048817,1
1649246821.7470014,-0.09246826171875,0.0435791015625,0.97540283203125,0.9807447181875949,-3.96728515625,-4.82177734375,-2.99072265625,5.9786420208724715,-0.019152124965330586,-0.001994652703842227,1
1649246821.7522447,-0.09246826171875,0.0435791015625,0.97540283203125,0.9807447181875949,-0.3662109375,0.06103515625,2.99072265625,3.113989506548852,-0.019630835100542754,-0.002095042803709854,1
1649246821.757382,-0.09173583984375,0.04339599609375,0.9737548828125,0.9790287271525757,2.9296875,-3.7841796875,2.5634765625,5.943019209098807,-0.020087930315639824,-0.0021936033540303906,1
1649246821.7623968,-0.09173583984375,0.04339599609375,0.9737548828125,0.9790287271525757,2.9296875,2.0751953125,1.28173828125,8.086639963495372,-0.020566566847264767,-0.0022996618342827763,1
1649246821.7673075,-0.087890625,0.04229736328125,0.973388671875,0.9782634284475797,0.3662109375,0.3662109375,-0.91552734375,4.467673378746362,-0.021011232180171646,-0.002402587680216183,1
1649246821.772162,-0.087890625,0.04229736328125,0.973388671875,0.9782634284475797,1.3427734375,4.638671875,-3.7841796875,7.497393234551048,-0.021437850096845068,-0.0025056108356762766,1
1649246821.777021,-0.0889892578125,0.0435791015625,0.97137451171875,0.9764152129682608,-1.40380859375,-0.6103515625,-4.8828125,4.256737249551439,-0.021867303061299026,-0.0026107529587045455,1
1649246821.7818844,-0.0889892578125,0.0435791015625,0.97137451171875,0.9764152129682608,1.0986328125,3.662109375,-8.056640625,5.256824462923456,-0.02230029331985861,-0.002718204911036406,1
1649246821.7867453,-0.093017578125,0.04559326171875,0.97357177734375,0.9790674241310775,4.8828125,-0.3662109375,6.4697265625,6.622525400766094,-0.022742693225154653,-0.0028276898810877926,1
1649246821.791607,-0.093017578125,0.04559326171875,0.97357177734375,0.9790674241310775,-3.47900390625,0.06103515625,-4.2724609375,10.808221554870565,-0.02319497338612564,-0.0029393714345553584,1
1649246821.796458,-0.09613037109375,0.04339599609375,0.97650146484375,0.9821809260851996,-2.01416015625,0.48828125,1.0986328125,6.578502671370747,-0.023653851654671598,-0.0030530280076608443,1
1649246821.8015687,-0.09613037109375,0.04339599609375,0.97650146484375,0.9821809260851996,-5.0048828125,0.244140625,-7.9345703125,8.513912063644534,-0.024121106740494724,-0.003169136434327373,1
1649246821.8066378,-0.09375,0.04229736328125,0.97705078125,0.9824491633574642,-1.77001953125,-3.72314453125,-1.89208984375,2.287800880614174,-0.024619925345177762,-0.0032971798622801352,1
1649246821.8118172,-0.09375,0.04229736328125,0.97705078125,0.9824491633574642,0.6103515625,-6.77490234375,0.0,2.0002404306852952,-0.025083656932110898,-0.003420108508070582,1
1649246821.8172495,-0.093017578125,0.04412841796875,0.97265625,0.9780898566986204,-4.39453125,1.03759765625,-3.60107421875,5.474482665158973,-0.025593690501409583,-0.003558500560125832,1
1649246821.8222866,-0.093017578125,0.04412841796875,0.97265625,0.9780898566986204,2.197265625,-3.2958984375,3.47900390625,4.37882052226207,-0.026079103277879767,-0.003693327948679581,1
1649246821.8279712,-0.0875244140625,0.04632568359375,0.97357177734375,0.9785952164494166,3.173828125,-1.708984375,-10.1318359375,3.3597067735651573,-0.02654884861840401,-0.003830258614421536,1
1649246821.833018,-0.0875244140625,0.04632568359375,0.97357177734375,0.9785952164494166,3.84521484375,-4.57763671875,-1.03759765625,6.66178529566788,-0.027035331397200935,-0.003979175811256076,1
1649246821.8380432,-0.09210205078125,0.04852294921875,0.97705078125,0.9825810366072778,0.1220703125,0.54931640625,-0.91552734375,10.46837450179607,-0.027479654119815677,-0.0041140236846431855,1
1649246821.8434827,-0.09210205078125,0.04852294921875,0.97705078125,0.9825810366072778,-2.5634765625,-5.67626953125,1.708984375,7.884173635843867,-0.027954755583778024,-0.004257000789825232,1
1649246821.8486502,-0.09210205078125,0.04852294921875,0.97705078125,0.9825810366072778,5.2490234375,1.15966796875,0.18310546875,6.069546586153686,-0.0284615875716554,-0.00441222864364443,1
1649246821.8535578,-0.09210205078125,0.04852294921875,0.97705078125,0.9780107383442006,3.173828125,-2.0751953125,-0.732421875,1.6670532572934158,-0.028918529074871913,-0.004554567258978176,1
1649246821.8584492,-0.0911865234375,0.0421142578125,0.97283935546875,0.9780107383442006,3.96728515625,3.173828125,3.7841796875,6.064941583149251,-0.029368676609010436,-0.004697717709148138,1
1649246821.8633192,-0.0911865234375,0.0421142578125,0.97283935546875,0.9766005489566417,-0.30517578125,-0.6103515625,-1.64794921875,3.239466433036035,-0.029812814536853693,-0.004841843967356754,1
1649246821.8681839,-0.09393310546875,0.0413818359375,0.97119140625,0.9766005489566417,-0.54931640625,3.35693359375,-6.9580078125,7.529373663326413,-0.030263089589425363,-0.004987969373120451,1
1649246821.8730478,-0.09393310546875,0.0413818359375,0.97119140625,0.97969497490728,1.15966796875,-2.13623046875,-4.7607421875,4.851431139950599,-0.030720291630132124,-0.005136382045115288,1
1649246821.877908,-0.0919189453125,0.04156494140625,0.9744873046875,0.97969497490728,3.23486328125,1.64794921875,3.0517578125,3.38511343356007,-0.031171816459391266,-0.005286748013207311,1
1649246821.8827693,-0.0919189453125,0.04156494140625,0.9744873046875,0.9802423306926175,-0.9765625,-2.197265625,-1.953125,2.3488624761833323,-0.03161879855906591,-0.0054394166542877445,1
1649246821.8876793,-0.09063720703125,0.0443115234375,0.97503662109375,0.9802423306926175,-1.15966796875,3.90625,-1.5869140625,6.450697065730151,-0.03206690791557776,-0.005595742040099,1
1649246821.8931508,-0.09063720703125,0.0443115234375,0.97503662109375,0.9811047660657535,6.65283203125,6.2255859375,3.173828125,7.581637640066118,-0.032563280292379204,-0.005772714837389894,1
1649246821.8980515,-0.09320068359375,0.04595947265625,0.9755859375,0.9811047660657535,4.08935546875,2.86865234375,4.94384765625,4.78610593752816,-0.03301390031265328,-0.005933456403523474,1
1649246821.9029117,-0.09320068359375,0.04595947265625,0.9755859375,0.9791323494308464,-3.173828125,0.732421875,-3.84521484375,5.5367331402229505,-0.03346642638643971,-0.006094850505289468,1
1649246821.9077947,-0.09027099609375,0.044677734375,0.97393798828125,0.9791323494308464,-3.96728515625,-2.50244140625,-7.14111328125,7.530115778186202,-0.03391468336485559,-0.006259475654581555,1
1649246821.9126484,-0.09027099609375,0.044677734375,0.97393798828125,0.9796828600668658,-7.2021484375,-6.7138671875,-0.1220703125,5.407039694909693,-0.03435315682872897,-0.006425274403106209,1
1649246821.9174988,-0.09136962890625,0.04248046875,0.9744873046875,0.9796828600668658,-4.33349609375,-1.15966796875,0.91552734375,3.492363159404289,-0.034793454011378344,-0.006592885904898013,1
1649246821.9231424,-0.09320068359375,0.04248046875,0.9752197265625,0.9805837408014674,-3.96728515625,-4.21142578125,-5.67626953125,8.442510247578726,-0.03531398905761307,-0.0067906066576291215,1
1649246821.9279852,-0.09320068359375,0.04248046875,0.9752197265625,0.9805837408014674,2.62451171875,-2.5634765625,3.23486328125,4.237879720908191,-0.03576580406661378,-0.006962895723180272,1
1649246821.9328275,-0.09320068359375,0.04248046875,0.9752197265625,0.9805837408014674,-0.42724609375,5.0048828125,-2.86865234375,7.284437865154147,-0.036217441309418064,-0.00713730600224777,1
1649246821.9376853,-0.09320068359375,0.04248046875,0.9752197265625,0.9805837408014674,1.953125,6.9580078125,-4.21142578125,5.835803621485118,-0.03666981183778262,-0.00731419335943155,1
1649246821.9425275,-0.09320068359375,0.04248046875,0.9752197265625,0.9805837408014674,6.40869140625,29.1748046875,5.37109375,16.09315482214936,-0.03712131575593958,-0.007492931228882219,1
1649246821.947372,-0.09320068359375,0.04248046875,0.9752197265625,0.9805837408014674,6.16455078125,45.10498046875,2.685546875,45.80780983943172,-0.037572819674096536,-0.007673856376153722,1
1649246821.9522204,-0.09320068359375,0.04248046875,0.9752197265625,0.9924137691000701,6.28662109375,55.23681640625,1.5869140625,55.67858322545069,-0.038024679124646354,-0.007857113853207417,1
1649246821.957125,-0.0816650390625,0.03021240234375,0.98858642578125,0.9924137691000701,10.80322265625,75.68359375,5.2490234375,64.80068362274257,-0.0384535360353766,-0.008044676118661609,1
1649246821.961967,-0.0816650390625,0.03021240234375,0.98858642578125,0.9945039403781245,5.126953125,28.01513671875,-0.3662109375,6.606474183464262,-0.03884898113028612,-0.008231836386924783,1
1649246821.9673276,-0.08148193359375,0.046875,0.99005126953125,0.9945039403781245,0.0,14.0380859375,-4.5166015625,38.995828952633495,-0.03927095815743087,-0.00843389235648798,1
1649246821.9727356,-0.10272216796875,0.059326171875,1.00689697265625,1.0138604203764259,0.30517578125,118.2861328125,-2.3193359375,123.58256700562818,-0.03976290205173427,-0.008644963796501141,1
1649246821.9776983,-0.10272216796875,0.059326171875,1.00689697265625,1.0138604203764259,-34.24072265625,-211.9140625,-0.9765625,123.32325126812427,-0.04029743985302048,-0.008853269754106167,1
1649246821.982558,-0.32080078125,0.06298828125,0.75311279296875,0.8210112933197878,-31.494140625,-98.20556640625,-4.08935546875,125.05562855775207,-0.041328806059027556,-0.009052046589487116,1
1649246821.987403,-0.32080078125,0.06298828125,0.75311279296875,0.8210112933197878,-8.48388671875,-7.99560546875,-19.775390625,4.756828068456717,-0.04288389636349166,-0.009256158244919658,1
1649246821.9922616,-0.109130859375,-0.0648193359375,0.98712158203125,0.9952487671387402,10.1318359375,2.197265625,5.79833984375,10.002691979466832,-0.04392738393653417,-0.009466858001888696,1
1649246821.997108,-0.109130859375,-0.0648193359375,0.98712158203125,0.9952487671387402,1.953125,6.77490234375,10.6201171875,10.764705292015954,-0.044456164505390916,-0.009680983975469204,1
1649246822.00203,-0.04339599609375,0.1153564453125,1.01239013671875,1.0198647512673011,-1.46484375,2.44140625,9.27734375,13.238580263058392,-0.04483134464680916,-0.009900610219042214,1
1649246822.0068855,-0.04339599609375,0.1153564453125,1.01239013671875,1.0198647512673011,-2.01416015625,-3.60107421875,3.23486328125,6.488413185280211,-0.04504202862881357,-0.010118774126571509,1
1649246822.0117385,-0.0040283203125,0.066650390625,0.976318359375,0.9785990194087141,-2.3193359375,4.33349609375,-3.84521484375,3.9010012649596666,-0.04515715485467808,-0.010337739677525591,1
1649246822.0168595,-0.0040283203125,0.066650390625,0.976318359375,0.9785990194087141,1.77001953125,5.06591796875,0.1220703125,7.648657323154561,-0.04517670625500614,-0.010556956788470559,1
1649246822.0219307,-0.06298828125,0.0406494140625,0.9722900390625,0.9751757885112876,-0.79345703125,8.36181640625,-4.150390625,9.82855547521689,-0.045353846384387,-0.010796249641787017,1
1649246822.0271122,-0.06298828125,0.0406494140625,0.9722900390625,0.9751757885112876,5.31005859375,20.6298828125,-0.91552734375,27.682858291142836,-0.045664590077649336,-0.011020762872977753,1
1649246822.0325117,-0.0977783203125,0.0498046875,0.99114990234375,0.9972057138505233,-5.859375,17.27294921875,-1.46484375,8.680091951494074,-0.046106072077236604,-0.011272774764986528,1
1649246822.0374737,-0.0977783203125,0.0498046875,0.99114990234375,0.9972057138505233,-2.01416015625,-0.79345703125,1.40380859375,4.517013943378513,-0.046609568285930436,-0.011511488077202772,1
1649246822.0426319,-0.10931396484375,0.04449462890625,0.96844482421875,0.9756099079383374,-0.67138671875,-3.662109375,-0.91552734375,6.762519035383076,-0.047117756854277104,-0.011741487737219211,1
1649246822.04853,-0.10931396484375,0.04449462890625,0.96844482421875,0.9756099079383374,3.41796875,-11.71875,0.06103515625,9.260664552875875,-0.04772644607874099,-0.012005546608428909,1
1649246822.0542064,-0.09503173828125,0.0439453125,0.968994140625,0.9746342218171189,0.244140625,-6.9580078125,4.150390625,8.165491152519323,-0.048330230711144395,-0.01228936733183309,1
1649246822.0595794,-0.09503173828125,0.0439453125,0.968994140625,0.9746342218171189,3.5400390625,-3.60107421875,4.8828125,4.241394446555588,-0.04885261815798003,-0.012556473359856634,1
1649246822.0650315,-0.09210205078125,0.04595947265625,0.97174072265625,0.9771771041901481,-3.84521484375,4.2724609375,-3.90625,6.538742750364736,-0.04934540377871599,-0.01281506147180341,1
1649246822.0704298,-0.09210205078125,0.04595947265625,0.97174072265625,0.9817328757715269,5.126953125,5.18798828125,4.57763671875,10.20747982401539,-0.04985915280121844,-0.013091745017600775,1
1649246822.0756772,-0.09027099609375,0.0457763671875,0.97650146484375,0.9817328757715269,-2.38037109375,1.220703125,2.25830078125,11.22914182038587,-0.050339836612693034,-0.013355841236656616,1
1649246822.0809581,-0.09375,0.0439453125,0.97467041015625,0.9801544069302934,-0.6103515625,2.50244140625,2.01416015625,9.801797630911015,-0.05082552206295077,-0.013622846327498715,1
1649246822.0862014,-0.09375,0.0439453125,0.97467041015625,0.9801544069302934,0.1220703125,3.173828125,-3.72314453125,5.200897312688644,-0.05131717097538058,-0.013890677495205101,1
1649246822.0914316,-0.09503173828125,0.04412841796875,0.97265625,0.9782834605661301,1.3427734375,0.79345703125,4.150390625,2.158781638650805,-0.05181094301951816,-0.014160416401727147,1
1649246822.0966694,-0.09503173828125,0.04412841796875,0.97265625,0.9782834605661301,5.2490234375,0.244140625,3.5400390625,3.4136063120384676,-0.0523084527158062,-0.014432959080030418,1
1649246822.1019452,-0.09979248046875,0.03955078125,0.97174072265625,0.9776516943799985,-2.74658203125,-3.11279296875,0.06103515625,5.109849283679466,-0.052820491131569725,-0.014709259727885593,1
1649246822.1076071,-0.09979248046875,0.03955078125,0.97174072265625,0.9776516943799985,1.64794921875,2.50244140625,-1.52587890625,0.9954532733337458,-0.05335070435103262,-0.01499131189808234,1
1649246822.113158,-0.09613037109375,0.0443115234375,0.97412109375,0.9798553284259215,-0.1220703125,8.544921875,2.44140625,5.624183489560072,-0.05392121706245234,-0.015303679721726882,1
1649246822.1184237,-0.09613037109375,0.0443115234375,0.97412109375,0.9798553284259215,4.2724609375,5.43212890625,7.2021484375,8.222547879263779,-0.05443605254549766,-0.015593838630952749,1
1649246822.1236598,-0.094482421875,0.044677734375,0.97430419921875,0.9798937190366811,-0.3662109375,2.5634765625,-5.43212890625,6.941390690654604,-0.0549356818155502,-0.015880520961934326,1
1649246822.1288965,-0.094482421875,0.044677734375,0.97430419921875,0.979355908133523,2.99072265625,5.06591796875,-0.18310546875,10.029285286039586,-0.055430270680517424,-0.016169388298804002,1
1649246822.134139,-0.094482421875,0.04486083984375,0.9737548828125,0.979355908133523,-1.52587890625,3.2958984375,-4.57763671875,14.012321380511283,-0.05592562544188695,-0.016461298012040295,1
1649246822.1393738,-0.094482421875,0.04486083984375,0.9737548828125,0.979355908133523,4.2724609375,4.33349609375,1.52587890625,4.866381656561925,-0.05642048462323146,-0.016755508844863872,1
1649246822.1447027,-0.094482421875,0.04486083984375,0.9737548828125,0.979355908133523,3.72314453125,8.36181640625,3.84521484375,9.927551568040752,-0.05691975897207158,-0.017054971301453368,1
1649246822.1499615,-0.1014404296875,0.043212890625,0.970458984375,0.9767026953200801,-0.6103515625,1.77001953125,-9.27734375,9.51561380019257,-0.05743872538005235,-0.017357887532883445,1
1649246822.1552098,-0.1014404296875,0.043212890625,0.970458984375,0.9767026953200801,-0.06103515625,9.58251953125,-7.14111328125,15.33161332842535,-0.057971696463937405,-0.017661072455361165,1
1649246822.1604493,-0.0970458984375,0.0435791015625,0.97393798828125,0.9797307025473196,4.39453125,8.11767578125,-3.2958984375,22.704832014165138,-0.05849139576457674,-0.017966009264627623,1
1649246822.165696,-0.0970458984375,0.0435791015625,0.97393798828125,0.9797307025473196,2.01416015625,13.427734375,-0.48828125,13.521043650436841,-0.05900044489681022,-0.018274157885518144,1
1649246822.1709843,-0.097412109375,0.0450439453125,0.97686767578125,0.9827454055087024,7.50732421875,14.22119140625,12.0849609375,21.923518868964777,-0.05951518346410012,-0.018587873763975454,1
1649246822.1762319,-0.097412109375,0.0450439453125,0.97686767578125,0.9827454055087024,-1.3427734375,15.380859375,-3.96728515625,17.69019535003198,-0.06002552646532422,-0.018901011242802593,1
1649246822.1814923,-0.1116943359375,0.03607177734375,0.96990966796875,0.9769859578420291,4.638671875,22.4609375,-10.498046875,16.0542185916782,-0.060576273121114355,-0.019218653473797625,1
1649246822.186762,-0.1116943359375,0.03607177734375,0.96990966796875,0.9769859578420291,2.8076171875,11.77978515625,-2.44140625,9.580964369227141,-0.06116114791802829,-0.019537385613657143,1
1649246822.1925285,-0.1116943359375,0.03607177734375,0.96990966796875,0.9769859578420291,4.0283203125,7.87353515625,1.3427734375,13.572742189743387,-0.06179994847479975,-0.019889004235038803,1
1649246822.1978345,-0.1116943359375,0.03607177734375,0.96990966796875,0.9752995869809323,7.6904296875,11.29150390625,3.47900390625,9.571044271090718,-0.062400774644629564,-0.020223054498803728,1
1649246822.2030833,-0.10748291015625,0.0498046875,0.96807861328125,0.9752995869809323,6.591796875,1.64794921875,4.150390625,4.416094961892024,-0.06297626917512389,-0.0205522574806541,1
1649246822.2083519,-0.10748291015625,0.0498046875,0.96807861328125,0.9752995869809323,1.0986328125,7.62939453125,8.056640625,6.533043008390359,-0.06354262769309571,-0.02088558979749195,1
1649246822.2135885,-0.10748291015625,0.0498046875,0.96807861328125,0.9752995869809323,2.44140625,-2.25830078125,-9.521484375,8.875317648455022,-0.06410568046703702,-0.021219934736115192,1
1649246822.218826,-0.1351318359375,0.03460693359375,0.96844482421875,0.9784393851908698,-4.0283203125,3.72314453125,-3.23486328125,5.138928188425726,-0.06474060362961609,-0.02155712565918298,1
1649246822.224068,-0.1351318359375,0.03460693359375,0.96844482421875,0.9784393851908698,0.91552734375,-4.2724609375,-3.23486328125,4.936684021946092,-0.0654494305344997,-0.021898578131588974,1
1649246822.2293053,-0.14337158203125,0.0380859375,0.968994140625,0.9802834252066999,4.0283203125,2.3193359375,-1.03759765625,13.512362047703403,-0.06617860640835715,-0.022243205818968808,1
1649246822.2345421,-0.14337158203125,0.0380859375,0.968994140625,0.9802834252066999,0.91552734375,-0.9765625,-5.4931640625,6.0652486921239595,-0.06692911625577835,-0.022591596536333806,1
1649246822.2399118,-0.15802001953125,0.03607177734375,0.96771240234375,0.9811925363267423,-4.08935546875,0.0,-2.86865234375,3.7411115529106334,-0.06772497241763631,-0.022947164792497976,1
1649246822.2456002,-0.15802001953125,0.03607177734375,0.96771240234375,0.9811925363267423,-4.94384765625,-4.5166015625,-6.65283203125,7.234919072366211,-0.06860151683940785,-0.02332526949104324,1
1649246822.2509534,-0.15802001953125,0.03607177734375,0.96771240234375,0.9811925363267423,5.67626953125,-20.93505859375,7.2021484375,31.98183947316811,-0.06948205480148317,-0.023709992348088283,1
1649246822.2572007,-0.15802001953125,0.03607177734375,0.96771240234375,0.9811925363267423,-16.845703125,-72.6318359375,-5.0048828125,80.18305347093538,-0.07032005779183237,-0.024080687747183475,1
1649246822.263808,-0.15802001953125,0.03607177734375,0.96771240234375,0.9811925363267423,-6.28662109375,1.52587890625,0.48828125,14.655937817793015,-0.07139812529931078,-0.024564113103232185,1
1649246822.2702157,-0.0919189453125,0.0318603515625,0.927978515625,0.9330639313415918,-1.0986328125,-3.7841796875,11.41357421875,10.841946784487888,-0.07217833838512888,-0.02501230346783627,1
1649246822.2767177,-0.0919189453125,0.0318603515625,0.927978515625,0.9330639313415918,0.67138671875,-4.69970703125,2.685546875,11.79495511632241,-0.07278078680246836,-0.02548734370709969,1
1649246822.2834406,-0.0919189453125,0.0318603515625,0.927978515625,0.9330639313415918,-2.5634765625,-15.9912109375,0.9765625,7.440283182456434,-0.0733761127848993,-0.02596064656942093,1
1649246822.2895143,-0.0205078125,0.0135498046875,0.98529052734375,0.9855970732778835,-0.732421875,-15.93017578125,-5.79833984375,19.52228340318941,-0.0737550096018822,-0.02645650284986659,1
1649246822.2955081,-0.0205078125,0.0135498046875,0.98529052734375,0.9855970732778835,1.5869140625,-0.91552734375,-1.220703125,8.057102999279413,-0.07387892276892671,-0.026902522826968082,1
1649246822.3016028,-0.0384521484375,0.0574951171875,0.98272705078125,0.9851582170174887,1.89208984375,-3.41796875,3.2958984375,1.5501007201172234,-0.0740508065719041,-0.02733377691954578,1
1649246822.3076437,-0.1051025390625,0.04815673828125,0.964599609375,0.9715029704358478,1.5869140625,1.40380859375,-0.9765625,6.499312786307461,-0.07449773104599444,-0.027796248596423403,1
1649246822.3130884,-0.1051025390625,0.04815673828125,0.964599609375,0.9715029704358478,7.6904296875,1.8310546875,11.41357421875,5.133125585938953,-0.07511025852727471,-0.028232199077972784,1
1649246822.3185112,-0.15966796875,0.03662109375,0.94610595703125,0.9601830276995187,1.40380859375,1.8310546875,9.09423828125,2.7822928027445024,-0.07582522596203489,-0.028639774517742033,1
1649246822.324012,-0.15966796875,0.03662109375,0.94610595703125,0.9601830276995187,-1.89208984375,1.953125,9.1552734375,10.061178523418894,-0.07669469474785728,-0.029055046633093464,1
1649246822.329513,-0.1171875,0.04962158203125,0.98162841796875,0.989843200978501,3.11279296875,8.72802734375,5.4931640625,16.48559457326276,-0.07745883042662172,-0.029480518483532142,1
1649246822.335148,-0.1171875,0.04962158203125,0.98162841796875,0.989843200978501,6.2255859375,11.65771484375,2.13623046875,6.423497127403745,-0.07810222531406907,-0.029907557152116564,1
1649246822.3408918,-0.03717041015625,0.0472412109375,0.99591064453125,0.9977230995084132,-5.31005859375,9.33837890625,-2.685546875,8.471802812280703,-0.07854336841410259,-0.03035523827680843,1
1649246822.3468761,-0.043212890625,0.06134033203125,0.97357177734375,0.9764589064011555,-1.953125,11.5966796875,4.45556640625,16.14123145530815,-0.07877840640867362,-0.030815241711568173,1
1649246822.3525531,-0.043212890625,0.06134033203125,0.97357177734375,0.9764589064011555,8.6669921875,16.17431640625,3.2958984375,12.688855216272424,-0.07902700160775566,-0.031269153336718425,1
1649246822.3591833,-0.05841064453125,0.05712890625,0.967529296875,0.9709729427925936,2.38037109375,18.24951171875,1.3427734375,19.4316230426463,-0.07935750856267987,-0.03178426218510779,1
1649246822.3669019,-0.05841064453125,0.05712890625,0.967529296875,0.9709729427925936,0.54931640625,18.49365234375,-3.35693359375,24.162060008061406,-0.07975947390514193,-0.03233176095748471,1
1649246822.3733115,-0.05841064453125,0.05712890625,0.967529296875,0.9709729427925936,-1.5869140625,18.00537109375,-4.57763671875,15.53137864763796,-0.08020401158864843,-0.032940466766654394,1
1649246822.3782828,-0.1043701171875,0.046875,0.97613525390625,0.9828175928957273,2.38037109375,9.58251953125,5.4931640625,11.724470649596281,-0.08063676202436909,-0.03336805977044524,1
1649246822.3831773,-0.1043701171875,0.046875,0.97613525390625,0.9828175928957273,-0.9765625,11.474609375,1.708984375,10.255722611633647,-0.08114991523325443,-0.0337657854548981,1
1649246822.388044,-0.1043701171875,0.046875,0.97613525390625,0.9828175928957273,2.25830078125,3.5400390625,-3.84521484375,9.26830453708947,-0.08165719587123021,-0.034161439390208465,1
1649246822.3929026,-0.1043701171875,0.046875,0.97613525390625,0.9828175928957273,3.0517578125,4.150390625,-7.50732421875,6.556948629854358,-0.0821648497658316,-0.0345598527566504,1
1649246822.3977637,-0.1109619140625,0.04486083984375,0.96917724609375,0.9765395924742455,3.41796875,4.7607421875,4.150390625,4.528956655051061,-0.08268689198303036,-0.0349595126134403,1
1649246822.4026465,-0.1109619140625,0.04486083984375,0.96917724609375,0.9765395924742455,7.080078125,8.11767578125,1.708984375,5.476523732525668,-0.08322962414240465,-0.035365274490537585,1
1649246822.407545,-0.1182861328125,0.0472412109375,0.9686279296875,0.9769664310493326,1.77001953125,4.5166015625,-4.8828125,9.551953202875797,-0.08379158002207987,-0.03577469367203162,1
1649246822.4127514,-0.1182861328125,0.0472412109375,0.9686279296875,0.9769664310493326,7.2021484375,6.89697265625,-4.8828125,11.084394405359834,-0.08437225120724179,-0.03618745503661222,1
1649246822.417726,-0.1182861328125,0.0472412109375,0.9686279296875,0.9769664310493326,14.7705078125,25.0244140625,3.0517578125,29.407736514683307,-0.08499164320528507,-0.03663088250550603,1
1649246822.4227152,-0.1182861328125,0.0472412109375,0.9686279296875,0.9769664310493326,14.404296875,29.35791015625,-7.38525390625,31.746085747912247,-0.08557231439044699,-0.03704953502650786,1
1649246822.4279413,-0.1182861328125,0.0472412109375,0.9686279296875,0.9769664310493326,8.23974609375,17.27294921875,-9.33837890625,18.61222030962382,-0.08618039754219353,-0.03749100660018154,1
1649246822.4328868,-0.1182861328125,0.0472412109375,0.9686279296875,0.9769664310493326,9.82666015625,11.474609375,3.11279296875,21.917315834884228,-0.08678819867782295,-0.037935397276886634,1
1649246822.4380999,-0.123046875,0.03936767578125,0.9404296875,0.9492619999109998,9.27734375,24.35302734375,1.46484375,26.410314822669502,-0.08741027371434029,-0.038384422141147276,1
1649246822.4430363,-0.123046875,0.03936767578125,0.9404296875,0.9492619999109998,13.916015625,20.69091796875,1.89208984375,26.255335038589518,-0.0880244073778158,-0.03882222417147021,1
1649246822.4479005,-0.136962890625,0.06005859375,0.9803466796875,0.9916881972000519,4.69970703125,-8.72802734375,-3.173828125,9.631958762001398,-0.0886573991010664,-0.03925235463553668,1
1649246822.4527655,-0.136962890625,0.06005859375,0.9803466796875,0.9916881972000519,-4.7607421875,-10.92529296875,1.0986328125,17.45712170307509,-0.08932234263920691,-0.0396843931192824,1
1649246822.4576688,-0.12506103515625,0.05255126953125,0.9173583984375,0.9273339903333178,-11.16943359375,-16.66259765625,0.1220703125,28.366445915679613,-0.08996370498061879,-0.04012323594228449,1
1649246822.4625454,-0.12506103515625,0.05255126953125,0.9173583984375,0.9273339903333178,-16.357421875,-45.71533203125,-4.5166015625,48.25600183050351,-0.09057650138129247,-0.04056555751949372,1
1649246822.4674067,-0.142822265625,0.04376220703125,0.91021728515625,0.9223929946176511,-1.03759765625,7.080078125,2.74658203125,5.493842189045698,-0.0912265854422003,-0.04100674698006523,1
1649246822.472276,-0.142822265625,0.04376220703125,0.91021728515625,0.9223929946176511,-11.77978515625,-20.263671875,-5.79833984375,20.274148094351354,-0.09192174643976614,-0.04145246731833474,1
1649246822.4771445,-0.08074951171875,0.0849609375,1.01165771484375,1.0184253416655409,-14.95361328125,-26.3671875,-8.36181640625,27.665425949733613,-0.09246632333815796,-0.04190160040808841,1
1649246822.4820228,-0.08074951171875,0.0849609375,1.01165771484375,1.0184253416655409,-10.92529296875,-28.74755859375,-13.24462890625,34.523353364198385,-0.09285960694978712,-0.04235290747881124,1
1649246822.4871147,-0.1109619140625,0.06134033203125,0.94976806640625,0.95819338479828,-0.91552734375,-13.48876953125,-34.24072265625,11.750654658889896,-0.09332705822453136,-0.04280688769215242,1
1649246822.4922204,-0.1109619140625,0.06134033203125,0.94976806640625,0.95819338479828,-1.3427734375,-6.591796875,-12.939453125,12.434555634909586,-0.0939110607796465,-0.043299613240541046,1
1649246822.497218,-0.111328125,0.0516357421875,1.011474609375,1.0188920878569911,1.0986328125,-12.14599609375,-18.73779296875,21.875974088506652,-0.0944605183249223,-0.043765230979829046,1
1649246822.5029154,-0.111328125,0.0516357421875,1.011474609375,0.9894744903119157,-4.638671875,-8.48388671875,-6.7138671875,11.118789675353927,-0.09506080787832616,-0.04427618754299336,1
1649246822.50804,-0.16058349609375,0.03387451171875,0.97576904296875,0.9894744903119157,3.96728515625,5.06591796875,-3.0517578125,5.605274157186942,-0.09579680904425913,-0.044792794475853284,1
1649246822.5142198,-0.08734130859375,0.04302978515625,0.97467041015625,0.9795215541434574,8.544921875,1.40380859375,4.45556640625,9.363278372664283,-0.09645289915351896,-0.04530155007300152,1
1649246822.5193846,-0.08734130859375,0.04302978515625,0.97467041015625,0.9795215541434574,1.8310546875,-1.89208984375,-2.38037109375,3.719640865525535,-0.09698417652543867,-0.045889867003748225,1
1649246822.5244172,-0.10107421875,0.05731201171875,0.97174072265625,0.9786627082154832,2.8076171875,2.62451171875,-4.0283203125,3.1247377285571787,-0.09746647902647965,-0.046387618111758795,1
1649246822.5294297,-0.10107421875,0.05731201171875,0.97174072265625,0.9786627082154832,5.67626953125,13.73291015625,-1.77001953125,7.4495402258251575,-0.09796068022842519,-0.04686538750830225,1
1649246822.5349216,-0.08807373046875,0.02783203125,0.970458984375,0.9748447283113036,1.03759765625,6.04248046875,-2.9296875,8.02513667670586,-0.09846639109309763,-0.04739056002269309,1
1649246822.539901,-0.08807373046875,0.02783203125,0.970458984375,0.9748447283113036,4.08935546875,7.8125,-1.77001953125,5.307251637775481,-0.09892814620980062,-0.0479080124862354,1
1649246822.5448284,-0.085693359375,0.034423828125,0.97686767578125,0.9812231182407056,8.9111328125,6.2255859375,5.92041015625,8.51303691207069,-0.0993587209522957,-0.04839934439980573,1
1649246822.5496979,-0.085693359375,0.034423828125,0.97686767578125,0.9812231182407056,-3.5400390625,-1.46484375,1.77001953125,10.665271397073592,-0.09977479600638617,-0.04888278027770866,1
1649246822.5545626,-0.085693359375,0.034423828125,0.97686767578125,0.9812231182407056,-0.42724609375,0.67138671875,-3.35693359375,6.303191337179628,-0.10019226036092732,-0.04936986071617394,1
1649246822.559418,-0.085693359375,0.034423828125,0.97686767578125,0.9812231182407056,4.69970703125,1.52587890625,-0.1220703125,4.112972555867052,-0.10060894834168721,-0.04985806336570647,1
1649246822.5649848,-0.085693359375,0.034423828125,0.97686767578125,0.9812231182407056,-2.86865234375,-3.173828125,-7.75146484375,6.971379865832454,-0.1010857439978281,-0.050419175416135734,1
1649246822.569848,-0.085693359375,0.034423828125,0.97686767578125,0.9812231182407056,-1.03759765625,-7.2021484375,-5.43212890625,11.086410727424541,-0.10150232982414309,-0.050911601671508495,1
1649246822.5747468,-0.07891845703125,0.03497314453125,0.9686279296875,0.9724666111848208,0.48828125,-4.69970703125,1.77001953125,8.169368133273538,-0.1019060587277636,-0.05141048351055341,1
1649246822.5796163,-0.07891845703125,0.03497314453125,0.9686279296875,0.9724666111848208,-3.23486328125,-12.87841796875,-4.150390625,14.409080616200947,-0.10228938948421273,-0.05190640296064842,1
1649246822.5844698,-0.20269775390625,0.018310546875,0.9722900390625,0.993362761344343,-6.8359375,-11.474609375,0.1220703125,11.91108541345513,-0.1029747469292488,-0.05240594559571741,1
1649246822.5893555,-0.20269775390625,0.018310546875,0.9722900390625,0.993362761344343,-0.91552734375,-12.26806640625,-2.86865234375,11.136700135439245,-0.10395699138462078,-0.05290732646620622,1
1649246822.5942261,-0.12579345703125,0.04541015625,0.967529296875,0.9767287322660034,-3.5400390625,-14.46533203125,6.7138671875,14.836691131654474,-0.10476265284523834,-0.05341923475425414,1
1649246822.5990818,-0.12579345703125,0.04541015625,0.967529296875,0.9767287322660034,2.25830078125,-9.1552734375,-1.89208984375,9.322208541033586,-0.10537375959393103,-0.0539296578828424,1
1649246822.6039839,-0.08642578125,0.0380859375,0.9722900390625,0.9768663544006849,-3.5400390625,-9.33837890625,9.8876953125,9.131030728777343,-0.10589417513256194,-0.05444774058324498,1
1649246822.6088405,-0.08642578125,0.0380859375,0.9722900390625,0.9768663544006849,-5.9814453125,-17.578125,19.34814453125,26.072444212459978,-0.10631304397975327,-0.05496197945936306,1
1649246822.6137311,-0.08551025390625,0.0150146484375,0.96826171875,0.9721461820053181,2.74658203125,-2.13623046875,19.47021484375,18.89735572245116,-0.10673360904911533,-0.055483103378075126,1
1649246822.6185882,-0.08551025390625,0.0150146484375,0.96826171875,0.9721461820053181,-0.42724609375,0.9765625,16.66259765625,19.41263420024205,-0.1071493047347758,-0.0560029837458374,1
1649246822.623431,-0.07818603515625,0.02545166015625,0.98291015625,0.9863433572329481,-4.8828125,-5.4931640625,21.05712890625,25.123585765568862,-0.10754604627436493,-0.05652332885927777,1
1649246822.6282887,-0.07818603515625,0.02545166015625,0.98291015625,0.9863433572329481,1.0986328125,1.953125,21.8505859375,15.668450975094462,-0.10792516700166743,-0.057045734189888994,1
1649246822.6331544,-0.07818603515625,0.02545166015625,0.98291015625,0.9863433572329481,-5.06591796875,2.0751953125,18.9208984375,20.772856114211617,-0.10830549939419143,-0.05757165628405226,1
1649246822.6380234,-0.07818603515625,0.02545166015625,0.98291015625,0.9863433572329481,-5.4931640625,-2.3193359375,22.88818359375,22.798571318904987,-0.10868633509380743,-0.058100128132848844,1
1649246822.6429393,-0.07818603515625,0.02545166015625,0.98291015625,0.9863433572329481,-0.48828125,1.89208984375,23.62060546875,25.93742807217472,-0.10907063802005723,-0.058635291744942225,1
1649246822.6478012,-0.07818603515625,0.02545166015625,0.98291015625,0.9863433572329481,1.77001953125,0.9765625,21.240234375,16.004251302733515,-0.10945069079753011,-0.059166394503818664,1
1649246822.653062,-0.07818603515625,0.02545166015625,0.98291015625,0.9863433572329481,-6.65283203125,-6.89697265625,25.81787109375,29.814221318453026,-0.10985538698150776,-0.05973396601849463,1
1649246822.65802,-0.07818603515625,0.02545166015625,0.98291015625,0.9863433572329481,-5.18798828125,-11.53564453125,20.20263671875,28.84794231213558,-0.11024882399942726,-0.06028775509493778,1
1649246822.6629019,-0.08990478515625,0.01666259765625,0.97174072265625,0.9760330653328997,-8.1787109375,-25.5126953125,23.3154296875,40.78148816210895,-0.1106600034981966,-0.06082813666244591,1
1649246822.6677642,-0.08990478515625,0.01666259765625,0.97174072265625,0.9760330653328997,-12.63427734375,-31.79931640625,17.76123046875,36.5610775304066,-0.11109740551910363,-0.061367580356609115,1
1649246822.6726146,-0.10272216796875,0.08551025390625,0.94757080078125,0.9569505054121299,-21.3623046875,-39.00146484375,5.79833984375,50.17958517122058,-0.1115651372820139,-0.06190824375801206,1
1649246822.677532,-0.10272216796875,0.08551025390625,0.94757080078125,0.9569505054121299,-16.29638671875,-39.73388671875,4.8828125,46.10922278932057,-0.11206969825434498,-0.062457479683891544,1
1649246822.6824002,-0.10272216796875,0.08551025390625,0.94757080078125,0.9569505054121299,-7.01904296875,-29.96826171875,3.47900390625,27.16688448773765,-0.11256938554288354,-0.06300385295901834,1
1649246822.6872768,-0.10272216796875,0.08551025390625,0.94757080078125,0.9569505054121299,-11.41357421875,-41.1376953125,-1.40380859375,48.90424517096295,-0.11307032186596189,-0.06355403179385488,1
1649246822.6921422,-0.10272216796875,0.08551025390625,0.94757080078125,0.9569505054121299,-14.58740234375,-48.2177734375,-4.82177734375,59.01430520098647,-0.11357003364537377,-0.06410529963398441,1
1649246822.6970043,-0.10272216796875,0.08551025390625,0.94757080078125,0.9569505054121299,-17.15087890625,-71.35009765625,-5.0048828125,80.8049686961411,-0.11406969644303899,-0.06465894402567178,1
1649246822.702162,-0.10272216796875,0.08551025390625,0.94757080078125,0.9569505054121299,-26.91650390625,-80.01708984375,-4.2724609375,72.06388615435506,-0.11457540848641656,-0.06522176598274598,1
1649246822.7072692,-0.10272216796875,0.08551025390625,0.94757080078125,0.9569505054121299,-13.3056640625,-64.63623046875,-5.06591796875,69.76545301802776,-0.11511744049494155,-0.0658277738130863,1
1649246822.7121513,-0.1175537109375,0.0106201171875,0.9884033203125,0.9954259316739885,-22.705078125,-100.5859375,-23.49853515625,97.97642673184626,-0.11566289101028815,-0.06639923561533366,1
1649246822.7170146,-0.1175537109375,0.0106201171875,0.9884033203125,0.9954259316739885,-10.92529296875,-61.5234375,-41.80908203125,82.22731365667191,-0.11623410906759091,-0.06696265361729385,1
1649246822.7218783,-0.07159423828125,0.0369873046875,0.98419189453125,0.9874854332718683,-20.32470703125,-66.58935546875,-35.888671875,79.16252706814268,-0.11669386671565007,-0.06752882638710504,1
1649246822.7267423,-0.07159423828125,0.0369873046875,0.98419189453125,0.9874854332718683,-16.41845703125,-62.3779296875,-50.10986328125,97.3715829323141,-0.1170419970585499,-0.06809710218944016,1
1649246822.7315936,-0.07159423828125,0.0369873046875,0.98419189453125,0.9874854332718683,-20.56884765625,-82.45849609375,-65.00244140625,105.49991641674076,-0.11739016154024284,-0.06866712676788507,1
1649246822.736444,-0.07159423828125,0.0369873046875,0.98419189453125,0.9874854332718683,-28.13720703125,-94.7265625,-82.1533203125,132.4148395661149,-0.11773730185814202,-0.06923716022553775,1
1649246822.7413216,-0.07159423828125,0.0369873046875,0.98419189453125,0.9874854332718683,-9.21630859375,-63.78173828125,-114.56298828125,133.55202106805336,-0.11808551754802465,-0.06981065054906768,1
1649246822.7462444,-0.07159423828125,0.0369873046875,0.98419189453125,0.9874854332718683,1.40380859375,-43.701171875,-131.89697265625,140.39281379551605,-0.11843827369739302,-0.07039334563624755,1
1649246822.7521653,-0.07159423828125,0.0369873046875,0.98419189453125,0.9874854332718683,-2.5634765625,-60.1806640625,-117.98095703125,129.5577836786126,-0.11878700146917254,-0.07097109493287138,1
1649246822.7571957,-0.07159423828125,0.0369873046875,0.98419189453125,0.9874854332718683,-10.7421875,-72.57080078125,-111.99951171875,123.47789236316214,-0.11922131519531831,-0.07169301251552768,1
1649246822.7620854,0.02838134765625,0.06756591796875,0.96331787109375,0.9661014309762405,16.11328125,-45.22705078125,-119.5068359375,133.00329416361558,-0.11932697000156622,-0.07227620203073898,1
1649246822.766951,0.02838134765625,0.06756591796875,0.96331787109375,0.9661014309762405,10.80322265625,-43.3349609375,-110.7177734375,109.26496556651877,-0.11918843656894751,-0.07285831600229638,1
1649246822.771817,0.02838134765625,0.06756591796875,0.96331787109375,0.9661014309762405,15.7470703125,-17.15087890625,-83.8623046875,86.47391492929886,-0.11905034973460715,-0.0734378804439888,1
1649246822.776706,0.02838134765625,0.06756591796875,0.96331787109375,0.9661014309762405,2.3193359375,26.9775390625,-70.1904296875,70.65925923434534,-0.11891241853300016,-0.07401612096594035,1
1649246822.7815952,0.02838134765625,0.06756591796875,0.96331787109375,0.9661014309762405,5.126953125,61.34033203125,-44.86083984375,88.70174392235187,-0.11877275507140439,-0.07460094051921962,1
1649246822.7864563,0.02838134765625,0.06756591796875,0.96331787109375,0.9661014309762405,3.47900390625,62.98828125,-27.4658203125,75.40460664434198,-0.1186348983028438,-0.07517752081981223,1
1649246822.7913275,0.02838134765625,0.06756591796875,0.96331787109375,0.9661014309762405,12.8173828125,75.13427734375,-20.3857421875,94.04858090142801,-0.1184966829023324,-0.07575492885672336,1
1649246822.7961907,0.02838134765625,0.06756591796875,0.96331787109375,0.9661014309762405,11.16943359375,94.970703125,-26.42822265625,96.55433774604359,-0.11835851486830506,-0.07633146626117457,1
1649246822.8010635,-0.01336669921875,0.031494140625,1.070068359375,1.0706151704871438,18.73779296875,108.154296875,-22.94921875,108.94806164609898,-0.11832204806705704,-0.0769063371419939,1
1649246822.8059785,-0.01336669921875,0.031494140625,1.070068359375,1.0706151704871438,12.87841796875,111.51123046875,-22.4609375,122.90386184440075,-0.11838794615323422,-0.07748982957130841,1
1649246822.8108466,0.0135498046875,-0.0311279296875,0.98529052734375,0.9858752296751472,14.09912109375,112.36572265625,-23.37646484375,118.7740220066355,-0.11838750252354657,-0.07806456398325812,1
1649246822.815715,0.0135498046875,-0.0311279296875,0.98529052734375,0.9858752296751472,7.32421875,72.44873046875,-15.19775390625,76.72628963893096,-0.11832136721204733,-0.0786422407540915,1
1649246822.8206046,0.02142333984375,0.01702880859375,0.944091796875,0.9444883592394613,16.54052734375,71.22802734375,-4.21142578125,87.50630168702112,-0.11823587933031376,-0.07922047808981528,1
1649246822.8254657,0.02142333984375,0.01702880859375,0.944091796875,0.9444883592394613,13.97705078125,82.6416015625,-6.103515625,76.76065745432193,-0.11813171244284604,-0.07979512416537654,1
1649246822.8303943,-0.12249755859375,0.104736328125,1.00469970703125,1.0175445206963754,2.8076171875,62.19482421875,-17.7001953125,66.7266409538191,-0.11838003778393613,-0.0803762388966793,1
1649246822.8352547,-0.12249755859375,0.104736328125,1.00469970703125,1.0175445206963754,-21.3623046875,11.41357421875,-3.2958984375,21.194672222991088,-0.11897720660635969,-0.08095479061539693,1
1649246822.8401155,-0.022705078125,-0.0223388671875,0.89996337890625,0.9005268618604543,-8.30078125,2.3193359375,-14.7705078125,13.44035162719773,-0.11933018199488288,-0.08153409581935407,1
1649246822.844976,-0.022705078125,-0.0223388671875,0.89996337890625,0.9005268618604543,-19.71435546875,7.080078125,-33.38623046875,58.65110133706974,-0.11944043492985656,-0.08211381550048664,1
1649246822.8498445,0.03424072265625,-0.03131103515625,0.92266845703125,0.9238343410000549,-38.9404296875,16.17431640625,-81.6650390625,105.60438476931807,-0.11941236974234926,-0.08269481672015698,1
1649246822.854787,0.03424072265625,-0.03131103515625,0.92266845703125,0.9238343410000549,-4.33349609375,0.79345703125,-65.24658203125,95.49135015545461,-0.11924378273397451,-0.08328233829760923,1
1649246822.8600457,0.19720458984375,-0.030029296875,0.9979248046875,1.01766660785192,-4.69970703125,-3.11279296875,-273.3154296875,318.18193627833676,-0.11864040759246564,-0.08390249951604367,1
1649246822.8650076,0.19720458984375,-0.030029296875,0.9979248046875,1.01766660785192,-0.18310546875,-3.5400390625,-412.78076171875,421.86944127835835,-0.11764853193744784,-0.08449672819716968,1
1649246822.8698685,1.220947265625,-0.03863525390625,1.06842041015625,1.6228761755352792,-5.859375,-6.28662109375,-391.41845703125,387.6146333474411,-0.11419317846593913,-0.08506161485285019,1
1649246822.8747606,1.220947265625,-0.03863525390625,1.06842041015625,1.6228761755352792,5.67626953125,-7.14111328125,-310.36376953125,291.8552728353743,-0.10821667597338092,-0.08560595984089751,1
1649246822.879641,-0.0941162109375,-0.2200927734375,0.9407958984375,0.9707706282111472,-10.31494140625,8.60595703125,-202.7587890625,190.0333584030362,-0.10548535162524786,-0.08612397391774917,1
1649246822.8845081,-0.0941162109375,-0.2200927734375,0.9407958984375,0.9707706282111472,-1.0986328125,4.08935546875,-124.755859375,111.06042297666575,-0.10594550929090474,-0.08664084306514616,1
1649246822.889365,-1.21014404296875,0.0252685546875,0.98126220703125,1.5581921009736208,1.953125,-1.5869140625,-79.7119140625,74.18375696125429,-0.1091123246733332,-0.0871630152732388,1
1649246822.8942363,-1.21014404296875,0.0252685546875,0.98126220703125,1.5581921009736208,0.06103515625,1.28173828125,-45.10498046875,31.05088216631086,-0.11500911325856578,-0.08770906462355439,1
1649246822.8990967,-0.55499267578125,0.091552734375,0.99481201171875,1.1428253199865137,1.0986328125,2.9296875,-22.64404296875,25.29677137856705,-0.11929853910987731,-0.0882784512838359,1
1649246822.9040005,-0.55499267578125,0.091552734375,0.99481201171875,1.1428253199865137,17.15087890625,-4.39453125,-18.85986328125,33.10840784940312,-0.1220198438531952,-0.08887008148803885,1
1649246822.9091375,-0.22467041015625,0.05255126953125,1.02923583984375,1.0547818936386768,45.83740234375,-22.0947265625,16.4794921875,55.585337063943605,-0.1239130944450153,-0.08946727877668728,1
1649246822.9142811,-0.22467041015625,0.05255126953125,1.02923583984375,1.0547818936386768,30.94482421875,-14.6484375,16.17431640625,31.601891533608686,-0.12511746339441743,-0.09013475579581391,1
1649246822.9191585,-0.28802490234375,0.08587646484375,1.10760498046875,1.1476593154518315,7.4462890625,-5.126953125,1.3427734375,9.332193557649918,-0.12638486827199813,-0.0907564803837034,1
1649246822.9240215,-0.28802490234375,0.08587646484375,1.10760498046875,1.1476593154518315,-5.859375,2.62451171875,-25.32958984375,25.659893980528242,-0.12778739431814756,-0.0913753213512562,1
1649246822.9288943,0.147216796875,-0.0897216796875,0.75970458984375,0.7790210709074189,-19.95849609375,3.2958984375,-23.74267578125,23.41674839686547,-0.12812855054653483,-0.09199529594436391,1
1649246822.9337585,0.147216796875,-0.0897216796875,0.75970458984375,0.7790210709074189,-23.193359375,9.765625,-25.81787109375,47.445874119610956,-0.12740943773678737,-0.09261941168608753,1
1649246822.938611,0.0362548828125,-0.02215576171875,0.87872314453125,0.879749770696176,-30.21240234375,11.65771484375,-64.51416015625,76.19231512236085,-0.12696387095638784,-0.09323716531633194,1
1649246822.9434571,0.0362548828125,-0.02215576171875,0.87872314453125,0.879749770696176,-11.53564453125,11.53564453125,-89.53857421875,79.4777343882592,-0.1267881071617012,-0.09385226054107641,1
1649246822.94835,0.16021728515625,0.01702880859375,0.99700927734375,1.0099440865188867,-16.54052734375,2.0751953125,-43.9453125,29.223795980381993,-0.12631061696447432,-0.09446737137814978,1
1649246822.953237,0.16021728515625,0.01702880859375,0.99700927734375,1.0099440865188867,2.50244140625,-5.43212890625,7.87353515625,9.557606573226614,-0.12552410413627513,-0.0950855045544127,1
1649246822.9581099,-0.43634033203125,0.10418701171875,1.0675048828125,1.1579354444858114,-1.03759765625,-0.3662109375,2.44140625,4.26285890874859,-0.1261954826186411,-0.09569759372708911,1
1649246822.9629798,-0.43634033203125,0.10418701171875,1.0675048828125,1.1579354444858114,-2.01416015625,-3.35693359375,-6.40869140625,12.744660933239373,-0.12832948369032238,-0.09631999384805028,1
1649246822.9678319,-0.113525390625,0.049072265625,0.98748779296875,0.9952026139598018,3.11279296875,-7.14111328125,-17.27294921875,13.229431715385177,-0.12966039266029838,-0.0969444391015921,1
1649246822.9727042,-0.113525390625,0.049072265625,0.98748779296875,0.9952026139598018,-2.01416015625,-9.521484375,-18.24951171875,24.03708279763889,-0.13021374146046583,-0.09757778217805543,1
1649246822.977591,0.15765380859375,0.04156494140625,0.97540283203125,0.9889353125724668,1.40380859375,6.9580078125,-38.02490234375,32.98028328371384,-0.13010650090291165,-0.09821028845083041,1
1649246822.9824355,0.15765380859375,0.04156494140625,0.97540283203125,0.9889353125724668,-7.080078125,-2.38037109375,-24.4140625,25.26191956024555,-0.1293370452040108,-0.09884341719309073,1
1649246822.9872885,0.15765380859375,0.04156494140625,0.97540283203125,0.9889353125724668,0.244140625,3.35693359375,-6.16455078125,10.070245900906801,-0.1285729269438889,-0.09946843767608321,1
1649246822.992155,0.15765380859375,0.04156494140625,0.97540283203125,0.9889353125724668,6.9580078125,4.2724609375,-28.3203125,39.78246950376463,-0.12780636548995972,-0.10009173528277743,1
1649246822.997011,0.15765380859375,0.04156494140625,0.97540283203125,0.9889353125724668,-2.44140625,2.0751953125,-47.2412109375,43.98297709112003,-0.1270405182003742,-0.10071073014523739,1
1649246823.0019302,0.15765380859375,0.04156494140625,0.97540283203125,0.9889353125724668,4.39453125,-3.662109375,-44.43359375,53.05320994061433,-0.1262648605479626,-0.10133386211133363,1
1649246823.006793,0.15765380859375,0.04156494140625,0.97540283203125,0.9889353125724668,-6.16455078125,-0.18310546875,-42.17529296875,37.51761102404372,-0.12549822391883936,-0.10194599702940167,1
1649246823.011693,0.15765380859375,0.04156494140625,0.97540283203125,0.9889353125724668,-1.3427734375,2.0751953125,-17.2119140625,23.342177142733302,-0.12473226386646274,-0.10255386866675663,1
1649246823.0166235,-0.2186279296875,0.04962158203125,0.97503662109375,1.0004783283593122,-4.638671875,8.48388671875,-47.4853515625,69.11352240623263,-0.12488294350623619,-0.1031707496634659,1
1649246823.0217566,-0.2186279296875,0.04962158203125,0.97503662109375,1.0004783283593122,-1.0986328125,4.150390625,-78.7353515625,71.51203037468493,-0.12595327744202223,-0.10378475748943078,1
1649246823.027225,-0.2186279296875,0.04962158203125,0.97503662109375,1.0004783283593122,-2.50244140625,-7.568359375,-52.3681640625,41.635864515316115,-0.12714146591315512,-0.10447251100882056,1
1649246823.0322664,-0.2186279296875,0.04962158203125,0.97503662109375,1.0004783283593122,5.31005859375,2.0751953125,2.38037109375,6.739895392322093,-0.12828998728946317,-0.10514344194752534,1
1649246823.0379653,-0.38690185546875,-0.04248046875,1.00469970703125,1.0774595757145884,-0.1220703125,-7.8125,-21.8505859375,28.199365106327814,-0.12987314378551673,-0.10581840897313155,1
1649246823.0429897,-0.38690185546875,-0.04248046875,1.00469970703125,1.0774595757145884,1.15966796875,3.96728515625,-57.6171875,64.12924685367138,-0.13201266482064966,-0.10654250758935148,1
1649246823.0481458,-0.03057861328125,0.00439453125,0.979248046875,0.9797352197423617,-2.5634765625,-6.28662109375,-52.91748046875,53.70955031944475,-0.13304573962523136,-0.10719840691847587,1
1649246823.0540864,-0.03057861328125,0.00439453125,0.979248046875,0.9605914981648981,2.44140625,4.57763671875,-41.6259765625,50.765328478923166,-0.13320891580951866,-0.10790881223219903,1
1649246823.0600889,0.03240966796875,-0.006591796875,0.96002197265625,0.9605914981648981,-4.0283203125,-2.44140625,-35.46142578125,26.93123965525434,-0.13320335129537852,-0.10871850327388788,1
1649246823.0661206,-0.1915283203125,0.00238037109375,0.96826171875,0.9870255921935235,-6.04248046875,2.74658203125,-31.005859375,27.229410621836386,-0.13371163125702878,-0.10957111837671236,1
1649246823.0726447,-0.1915283203125,0.00238037109375,0.96826171875,0.9870255921935235,5.67626953125,2.50244140625,-1.8310546875,5.252570794421427,-0.13496474027488148,-0.11045005049364746,1
1649246823.0788224,-0.167724609375,0.0120849609375,0.9803466796875,0.9946643671335387,1.3427734375,-0.244140625,-0.732421875,7.732217275789349,-0.1359600231735385,-0.11120062693047003,1
1649246823.0849776,-0.2047119140625,-0.03497314453125,0.9862060546875,1.007835537624974,-3.90625,-0.91552734375,0.6103515625,2.6017018415462787,-0.13712116127862828,-0.11205200682770418,1
1649246823.0915182,-0.2047119140625,-0.03497314453125,0.9862060546875,1.007835537624974,1.953125,-1.708984375,0.8544921875,4.202570797144045,-0.13845296126237372,-0.11294841193827512,1
1649246823.0974052,-0.09466552734375,-0.02069091796875,0.9671630859375,0.9720052010940106,-0.18310546875,-0.30517578125,-1.77001953125,3.818479570219007,-0.13938632448844146,-0.11381462607538119,1
1649246823.1036775,-0.09466552734375,-0.02069091796875,0.9671630859375,0.9757075019223274,-0.79345703125,0.79345703125,-1.89208984375,2.130118208815326,-0.13995335111394525,-0.11465121906794429,1
1649246823.1096425,-0.08551025390625,-0.02032470703125,0.97174072265625,0.9757075019223274,-3.7841796875,5.7373046875,-3.662109375,8.397381738350685,-0.1405264438362792,-0.11554335300588273,1
1649246823.1151974,-0.10052490234375,-0.02215576171875,0.9781494140625,0.9835509188645856,1.3427734375,1.64794921875,1.77001953125,2.843871522759215,-0.14106009184615687,-0.11635109331370572,1
1649246823.1220808,-0.10052490234375,-0.02215576171875,0.9781494140625,0.9835509188645856,-4.150390625,-0.18310546875,-3.0517578125,6.507046144935359,-0.14161612634779885,-0.11713287835624195,1
1649246823.1290345,-0.08587646484375,-0.002197265625,0.9755859375,0.9793607693991222,3.35693359375,-0.67138671875,2.9296875,7.917179710093751,-0.14226683950982988,-0.11812389245204602,1
1649246823.1353035,-0.08660888671875,0.00384521484375,0.973388671875,0.9772417262225515,-1.64794921875,0.244140625,-4.33349609375,6.869099425712122,-0.14287505921674892,-0.119129362890566,1
1649246823.1412024,-0.08660888671875,0.00384521484375,0.973388671875,0.9772417262225515,0.244140625,-2.99072265625,1.03759765625,4.4000379181441795,-0.14340142715082038,-0.11999928957136878,1
1649246823.146982,-0.09246826171875,0.000732421875,0.9759521484375,0.980323167076481,-0.244140625,-0.9765625,-4.94384765625,3.478468468939211,-0.1439273694413714,-0.12084316254309924,1
1649246823.152777,-0.09246826171875,0.000732421875,0.9759521484375,0.9797197687958318,1.953125,-1.15966796875,3.41796875,3.212328458725773,-0.14446291455533355,-0.12167829237379915,1
1649246823.15805,-0.087890625,-0.00091552734375,0.97576904296875,0.9797197687958318,1.28173828125,0.1220703125,3.7841796875,7.307414805398218,-0.1449762809133972,-0.12250214058201282,1
1649246823.1634033,-0.08734130859375,-0.00164794921875,0.97723388671875,0.9811306178460292,2.3193359375,3.72314453125,0.42724609375,3.7431025650541905,-0.1454350929343491,-0.12326252840978971,1
1649246823.170882,-0.08734130859375,-0.00164794921875,0.97723388671875,0.9811306178460292,-3.35693359375,-0.732421875,1.953125,5.002649320616741,-0.14594331836997299,-0.1241102711468795,1
1649246823.1766703,-0.0845947265625,0.0018310546875,0.9730224609375,0.9766945940325059,-1.15966796875,4.5166015625,-4.33349609375,10.857226207196309,-0.14657267998700263,-0.12518100853805922,1
1649246823.181988,-0.0845947265625,0.0018310546875,0.9730224609375,0.9766945940325059,4.638671875,14.7705078125,0.06103515625,14.753221216677877,-0.1470420922341873,-0.12599563597191665,1
1649246823.1871865,-0.0845947265625,0.0018310546875,0.9730224609375,0.9766945940325059,-4.57763671875,13.5498046875,-1.46484375,15.031510475741019,-0.147485345347377,-0.12676725737748598,1
1649246823.1923678,-0.05859375,-0.0047607421875,0.96771240234375,0.9694963568034437,0.8544921875,17.51708984375,6.4697265625,16.432971990641427,-0.14785540986486012,-0.12753055297706595,1
1649246823.1975381,-0.05859375,-0.0047607421875,0.96771240234375,0.9694963568034437,0.9765625,6.28662109375,-0.67138671875,8.728240750778253,-0.14815882078983122,-0.12829696536343438,1
1649246823.2027237,-0.1226806640625,0.00439453125,0.98638916015625,0.9939987085069454,-4.69970703125,6.65283203125,-8.48388671875,8.427715279390664,-0.14862839726993116,-0.12906576827429142,1
1649246823.2079158,-0.1226806640625,0.00439453125,0.98638916015625,0.9939987085069454,4.69970703125,3.11279296875,4.638671875,11.140546287483264,-0.14926696907059522,-0.1298410639655368,1
1649246823.213076,-0.12725830078125,0.00274658203125,0.98291015625,0.9911178507574087,1.89208984375,-0.732421875,-4.150390625,4.787273327912006,-0.14991221059608506,-0.1306134238510937,1
1649246823.218326,-0.12725830078125,0.00274658203125,0.98291015625,0.9911178507574087,-0.3662109375,3.2958984375,-3.173828125,5.820463037784249,-0.15057597503619036,-0.1313970794989768,1
1649246823.2235205,-0.08807373046875,-0.002197265625,0.9759521484375,0.9799206120980826,-1.953125,1.03759765625,-3.35693359375,6.112359315622285,-0.15113793344789883,-0.1321844712670191,1
1649246823.2287302,-0.08807373046875,-0.002197265625,0.9759521484375,0.9799206120980826,4.21142578125,0.42724609375,3.90625,8.715427079933514,-0.15159362002304988,-0.13296762592651362,1
1649246823.2338974,-0.08880615234375,0.010986328125,0.9781494140625,0.9822339376801148,2.197265625,-5.4931640625,0.6103515625,7.1097443034071,-0.1520545118037262,-0.1337588347737347,1
1649246823.2390745,-0.08880615234375,0.010986328125,0.9781494140625,0.9822339376801148,-1.28173828125,1.52587890625,5.0048828125,5.794483709532475,-0.15251333150808932,-0.13454561431624845,1
1649246823.244241,-0.08880615234375,0.010986328125,0.9781494140625,0.9822339376801148,5.9814453125,-0.79345703125,-4.69970703125,3.911491691897489,-0.15297280757658882,-0.1353358949807254,1
1649246823.2500858,-0.08880615234375,0.010986328125,0.9781494140625,0.9822339376801148,4.7607421875,1.15966796875,0.79345703125,5.085367759751757,-0.1534312038202188,-0.13612668730845617,1
1649246823.2559347,-0.0941162109375,-0.02362060546875,0.97430419921875,0.979124336731159,-3.5400390625,2.50244140625,2.13623046875,8.48915430556812,-0.15399205529683968,-0.13706926636620814,1
1649246823.2613058,-0.09320068359375,-0.00439453125,0.9722900390625,0.976756673582222,0.54931640625,-7.38525390625,6.9580078125,2.816228514418781,-0.15452721401379677,-0.13795069661164322,1
1649246823.2665465,-0.09320068359375,-0.00439453125,0.9722900390625,0.976756673582222,3.7841796875,1.5869140625,4.5166015625,7.974378056923617,-0.15501673767721513,-0.1387636149475284,1
1649246823.271789,-0.09503173828125,0.0029296875,0.97906494140625,0.9836705616416643,2.3193359375,-4.08935546875,-3.7841796875,3.763449709342772,-0.15551028465415584,-0.13957781938480554,1
1649246823.2770307,-0.09503173828125,0.0029296875,0.97906494140625,0.9836705616416643,2.13623046875,-2.685546875,-1.64794921875,7.561465168920204,-0.15600817952508805,-0.1403938806729643,1
1649246823.2822711,-0.09283447265625,0.0040283203125,0.97998046875,0.9843760388232607,2.9296875,5.43212890625,-0.67138671875,4.121568119173372,-0.15650067671231227,-0.14121313247940426,1
1649246823.2875407,-0.09283447265625,0.0040283203125,0.97998046875,0.9843760388232607,5.7373046875,-5.0048828125,-3.11279296875,8.602276820042905,-0.15699020251486218,-0.14203966743918153,1
1649246823.2927668,-0.08660888671875,0.00146484375,0.97357177734375,0.97741764393024,-1.953125,-2.197265625,-8.72802734375,3.860684717008904,-0.1574601483225706,-0.14286318425598207,1
1649246823.298029,-0.08660888671875,0.00146484375,0.97357177734375,0.97741764393024,3.47900390625,4.0283203125,-0.18310546875,7.355939204830292,-0.15791447131050518,-0.14369036230282453,1
1649246823.303262,-0.08660888671875,0.00146484375,0.97357177734375,0.97741764393024,0.1220703125,2.01416015625,0.48828125,2.4875102383196817,-0.15836815417424077,-0.1445187530876276,1
1649246823.3084981,-0.08660888671875,0.00146484375,0.97357177734375,0.97741764393024,-2.3193359375,-2.5634765625,-4.7607421875,6.364067577020056,-0.158821011071268,-0.14534800575779638,1
1649246823.3137205,-0.0919189453125,-0.005126953125,0.98016357421875,0.9844775316791051,3.96728515625,-2.9296875,-8.36181640625,13.263179603084248,-0.15928796329535544,-0.1461800423729986,1
1649246823.3194578,-0.0919189453125,-0.005126953125,0.98016357421875,1.0039213658096555,11.71875,-12.02392578125,-35.82763671875,35.54143759253776,-0.15980818594107404,-0.14708301750195613,1
1649246823.3247643,-0.03643798828125,-0.02801513671875,1.00286865234375,1.0039213658096555,16.90673828125,-10.3759765625,-46.142578125,51.652657554127316,-0.16015315462573199,-0.1479429371004257,1
1649246823.3300726,0.04248046875,-0.05035400390625,1.0008544921875,1.0030203539642197,10.25390625,-14.34326171875,-52.734375,47.12325162199193,-0.16013717326131882,-0.1487899191436346,1
1649246823.3353043,0.04248046875,-0.05035400390625,1.0008544921875,1.0030203539642197,5.92041015625,1.220703125,-36.1328125,37.1794791347038,-0.15991388844122412,-0.14963104149746187,1
1649246823.340614,-0.1754150390625,-0.00201416015625,0.93914794921875,0.9553917328992424,6.77490234375,0.18310546875,-22.3388671875,20.419065000488047,-0.16026538512232946,-0.15047757719305832,1
1649246823.3458502,-0.1754150390625,-0.00201416015625,0.93914794921875,0.9553917328992424,0.3662109375,3.84521484375,-19.1650390625,11.700934537423592,-0.1611871465065633,-0.1513221528124103,1
1649246823.351138,-0.2431640625,-0.02947998046875,0.9415283203125,0.9728686491456179,-1.953125,0.18310546875,-9.3994140625,14.37076609912753,-0.16228436500387033,-0.15217006644320613,1
1649246823.3563833,-0.2431640625,-0.02947998046875,0.9415283203125,0.9728686491456179,8.30078125,-5.31005859375,-9.033203125,13.903428123566817,-0.16356972496578237,-0.1530312952702913,1
1649246823.363454,-0.12835693359375,0.0146484375,0.99188232421875,1.0002602782378052,-0.54931640625,-4.94384765625,-12.87841796875,20.296277390536915,-0.1648643295338843,-0.15417575879118534,1
1649246823.368895,-0.12835693359375,0.0146484375,0.99188232421875,0.9930496825123819,4.57763671875,-5.37109375,-43.88427734375,41.796204748751244,-0.16555806163523812,-0.1550686775192285,1
1649246823.3745086,0.0164794921875,0.041015625,0.9920654296875,0.9930496825123819,4.8828125,-9.82666015625,-41.07666015625,39.1350073218884,-0.16586248862586217,-0.1559705359563864,1
1649246823.3810055,0.0164794921875,0.041015625,0.9920654296875,0.9930496825123819,27.28271484375,-15.7470703125,-15.80810546875,29.024896187148958,-0.1657559376108111,-0.15704260418285645,1
1649246823.3868763,0.0164794921875,0.041015625,0.9920654296875,0.9930496825123819,25.390625,-10.92529296875,-7.01904296875,30.711602455379523,-0.165661315091711,-0.15799407571387028,1
1649246823.3929446,0.0164794921875,0.041015625,0.9920654296875,0.9930496825123819,16.4794921875,-4.33349609375,-13.61083984375,20.823277589749722,-0.16556341184332268,-0.15897796454808058,1
1649246823.4001355,0.0164794921875,0.041015625,0.9920654296875,0.9930496825123819,-4.82177734375,2.0751953125,-2.3193359375,3.22159258310465,-0.16546241252945038,-0.15999235809720416,1
1649246823.4064853,0.0164794921875,0.041015625,0.9920654296875,0.9930496825123819,-4.39453125,-8.4228515625,-0.18310546875,4.01396070494565,-0.16534311971190618,-0.16118968637501999,1
1649246823.4126906,0.0164794921875,0.041015625,0.9920654296875,0.9930496825123819,-2.9296875,-5.18798828125,-4.638671875,10.65775898068643,-0.1652389968294301,-0.16223404995363302,1
1649246823.4182205,0.0164794921875,0.041015625,0.9920654296875,0.9930496825123819,-31.06689453125,2.86865234375,-1.89208984375,24.237413290930093,-0.16513827254675562,-0.1632436991919486,1
1649246823.4236534,0.0164794921875,0.041015625,0.9920654296875,0.9930496825123819,-27.03857421875,7.6904296875,1.220703125,21.59756407887963,-0.16505022327328334,-0.16412579121381052,1
1649246823.4290419,-0.054931640625,0.01483154296875,0.9312744140625,0.9330109828378446,-2.3193359375,-6.28662109375,-4.8828125,9.73104075094763,-0.165156090639357,-0.16503493430717314,1
1649246823.4342952,-0.054931640625,0.01483154296875,0.9312744140625,0.9330109828378446,3.72314453125,-4.94384765625,-8.4228515625,16.524303404572397,-0.16544817377143772,-0.1659138806478401,1
1649246823.439521,-0.07470703125,0.07818603515625,1.09698486328125,1.102302130488654,4.33349609375,1.64794921875,-5.2490234375,9.687492616712156,-0.1657868047550437,-0.16677910415685043,1
1649246823.4447398,-0.07470703125,0.07818603515625,1.09698486328125,1.102302130488654,2.8076171875,2.01416015625,0.0,4.3235988155334075,-0.16617702006624313,-0.1676460732027499,1
1649246823.4499748,-0.07470703125,0.07818603515625,1.09698486328125,1.102302130488654,5.2490234375,-3.7841796875,-4.57763671875,3.916250778329664,-0.16656693258119049,-0.16851440533454162,1
1649246823.4552937,-0.07470703125,0.07818603515625,1.09698486328125,1.102302130488654,0.79345703125,2.8076171875,1.03759765625,5.591300044237689,-0.16696085269359173,-0.16939372887655682,1
1649246823.4605978,-0.1263427734375,-0.04559326171875,0.95709228515625,0.9664713571646324,2.197265625,3.0517578125,16.2353515625,16.478361868064706,-0.16749780945974635,-0.17028698933966147,1
1649246823.4658382,-0.1263427734375,-0.04559326171875,0.95709228515625,0.9664713571646324,-0.67138671875,-0.42724609375,6.53076171875,14.352089620430002,-0.16816074465896236,-0.17116760903950257,1
1649246823.4710634,-0.16314697265625,-0.0673828125,0.9561767578125,0.9723329523821218,0.0,-2.99072265625,10.07080078125,13.681816845997199,-0.16891909898549784,-0.1720506315343059,1
1649246823.476269,-0.16314697265625,-0.0673828125,0.9561767578125,0.9723329523821218,0.30517578125,5.126953125,4.33349609375,6.899672798332165,-0.16976877093838993,-0.1729325773625789,1
1649246823.4815438,-0.16314697265625,-0.0673828125,0.9561767578125,0.9723329523821218,6.53076171875,1.708984375,19.95849609375,21.32608886054175,-0.1706289062567521,-0.17382989117624334,1
1649246823.486788,-0.16314697265625,-0.0673828125,0.9561767578125,0.9579827541608819,1.708984375,1.220703125,21.05712890625,9.296798385176203,-0.17148001740861218,-0.17472225440965725,1
1649246823.4920022,-0.052734375,0.0260009765625,0.9561767578125,0.9579827541608819,0.42724609375,3.5400390625,15.7470703125,14.776685699565656,-0.17204593142378144,-0.1756227775494707,1
1649246823.497232,-0.09503173828125,0.0032958984375,0.9656982421875,0.9703684811406921,0.1220703125,-5.859375,19.53125,14.710485653007998,-0.17243226565187797,-0.17652341515445397,1
1649246823.502451,-0.09503173828125,0.0032958984375,0.9656982421875,0.9703684811406921,1.40380859375,1.46484375,26.18408203125,25.323485592584422,-0.17292841590824537,-0.17742496022662846,1
1649246823.5077205,-0.06939697265625,-0.03369140625,0.9957275390625,0.9987113610630538,-0.30517578125,-9.46044921875,25.634765625,24.901296556183286,-0.17335723638825584,-0.17832805299425933,1
1649246823.512967,-0.06939697265625,-0.03369140625,0.9957275390625,0.9987113610630538,-1.0986328125,8.6669921875,19.1650390625,25.748807550800528,-0.17372398455336224,-0.1792451780218434,1
1649246823.5182064,-0.02984619140625,0.02783203125,0.970458984375,0.9713166617839498,-0.06103515625,13.18359375,13.427734375,9.81774725598513,-0.17398392884933855,-0.18015591771468448,1
1649246823.5234432,-0.02984619140625,0.02783203125,0.970458984375,0.9713166617839498,-1.64794921875,0.06103515625,16.41845703125,11.926244542418805,-0.17414025776088238,-0.18106762323908612,1
1649246823.5287056,-0.02984619140625,0.02783203125,0.970458984375,0.9713166617839498,-5.31005859375,-9.82666015625,7.38525390625,14.958719432739333,-0.17429641589114908,-0.18197915025325748,1
1649246823.5339777,-0.02984619140625,0.02783203125,0.970458984375,0.9713166617839498,-0.79345703125,3.5400390625,23.5595703125,15.952726458167808,-0.1744545593537623,-0.18290309874075897,1
1649246823.539219,-0.1278076171875,-0.047607421875,0.97979736328125,0.9892442199586614,-6.9580078125,15.56396484375,14.7705078125,28.16162373940034,-0.1748678161893622,-0.18381877506224376,1
1649246823.5444531,-0.1278076171875,-0.047607421875,0.97979736328125,0.9892442199586614,23.13232421875,-5.92041015625,53.64990234375,73.65464107033135,-0.17553727966878796,-0.1847364958516767,1
1649246823.54972,-0.11370849609375,0.00677490234375,1.0272216796875,1.0335182149365723,6.65283203125,-1.46484375,95.703125,105.40398622598833,-0.17616903979796916,-0.18565649256246103,1
1649246823.5555305,-0.11370849609375,0.00677490234375,1.0272216796875,1.0099935329756624,1.8310546875,10.07080078125,95.88623046875,96.04790920000512,-0.17682600171247032,-0.18667622418431323,1
1649246823.560816,-0.23565673828125,0.2054443359375,0.96038818359375,1.0099935329756624,-6.53076171875,-1.5869140625,93.56689453125,94.8904134470684,-0.1777627807605313,-0.1876270095213042,1
1649246823.5660403,-0.0567626953125,-0.17431640625,0.90472412109375,0.9231110162683106,-5.18798828125,-1.953125,82.09228515625,74.33605961832188,-0.17852668336126953,-0.188557763147742,1
1649246823.5713346,-0.0567626953125,-0.17431640625,0.90472412109375,0.9231110162683106,8.97216796875,13.24462890625,78.2470703125,82.9908016950609,-0.17882666207151487,-0.18950203116632902,1
1649246823.5765722,-0.0853271484375,-0.06683349609375,1.014404296875,1.0201781785448323,0.732421875,10.68115234375,78.18603515625,79.67051998317075,-0.1791987824253738,-0.19043966718295444,1
1649246823.581812,-0.0853271484375,-0.06683349609375,1.014404296875,1.0201781785448323,-9.27734375,9.3994140625,75.98876953125,84.63980834521894,-0.17964573082281277,-0.19137949104360719,1
1649246823.5870507,-0.01226806640625,0.0494384765625,0.99151611328125,0.992823685915342,-3.41796875,-4.82177734375,94.3603515625,99.33885603805163,-0.17990134706633398,-0.19232119780214238,1
1649246823.5922856,-0.01226806640625,0.0494384765625,0.99151611328125,0.992823685915342,-1.28173828125,5.859375,84.8388671875,81.77729305742258,-0.17996556693833554,-0.19326309876638895,1
1649246823.5975304,-0.01226806640625,0.0494384765625,0.99151611328125,0.992823685915342,5.7373046875,18.37158203125,70.49560546875,74.9933329241492,-0.18002991258254042,-0.19420718156939748,1
1649246823.603487,-0.01226806640625,0.0494384765625,0.99151611328125,0.992823685915342,3.72314453125,0.6103515625,73.54736328125,70.43467609258738,-0.1800941002802574,-0.1951492832222908,1
1649246823.6100988,-0.03369140625,-0.100341796875,1.01275634765625,1.0182725601592304,-4.2724609375,7.080078125,79.9560546875,74.18641841778103,-0.1802597955102101,-0.19644844785966462,1
1649246823.6153817,-0.04833984375,-0.02178955078125,0.960205078125,0.961667986923793,-17.4560546875,2.8076171875,65.85693359375,75.6039354055033,-0.1804815122159198,-0.19742347108998776,1
1649246823.6206243,-0.04833984375,-0.02178955078125,0.960205078125,0.961667986923793,-20.3857421875,11.8408203125,48.88916015625,50.6183505695229,-0.18073504173662513,-0.19837071308220483,1
1649246823.6258936,-0.04339599609375,0.01007080078125,1.01202392578125,1.0130039782049414,-23.49853515625,-6.40869140625,51.45263671875,68.71845757221419,-0.1809766018341179,-0.19932317724489237,1
1649246823.6311374,-0.04339599609375,0.01007080078125,1.01202392578125,1.0130039782049414,-14.2822265625,-5.859375,60.4248046875,63.5291541917689,-0.1812043263562373,-0.20027346628324888,1
1649246823.6363747,-0.08056640625,-0.03057861328125,1.00360107421875,1.0072939558933496,-12.63427734375,-7.01904296875,73.91357421875,76.67310568904519,-0.1815289873702568,-0.2012234750215963,1
1649246823.6415958,-0.08056640625,-0.03057861328125,1.00360107421875,1.0072939558933496,-27.52685546875,5.37109375,61.1572265625,64.01493935454104,-0.1819507298132521,-0.20217483198934125,1
1649246823.6468108,-0.002197265625,0.01593017578125,0.98565673828125,0.985787910351857,-22.52197265625,-7.32421875,58.89892578125,63.20186745768256,-0.18216636544821085,-0.20312351659041386,1
1649246823.652082,-0.002197265625,0.01593017578125,0.98565673828125,0.985787910351857,-57.92236328125,-111.4501953125,95.3369140625,63.65533742685936,-0.18217784079752164,-0.20407492114261283,1
1649246823.657827,-0.05914306640625,-0.00933837890625,1.00341796875,1.0052028291021204,-27.4658203125,2.25830078125,42.1142578125,53.445646378927286,-0.18235238629131345,-0.20511220128737706,1
1649246823.6630826,-0.05914306640625,-0.00933837890625,1.00341796875,1.0052028291021204,-18.98193359375,12.26806640625,46.08154296875,43.94641450983705,-0.1826694993142155,-0.2060907876255851,1
1649246823.6683016,-0.05914306640625,-0.00933837890625,1.00341796875,1.0052028291021204,-19.775390625,10.43701171875,35.400390625,38.344168047503096,-0.18297781343426323,-0.20704385141080972,1
1649246823.6735332,-0.05914306640625,-0.00933837890625,1.00341796875,0.9994361785534989,-17.27294921875,13.7939453125,37.65869140625,38.414006768295394,-0.183287495332479,-0.20800276124556838,1
1649246823.6787727,-0.04632568359375,0.01190185546875,0.998291015625,0.9994361785534989,-23.5595703125,18.49365234375,37.04833984375,48.18593193105378,-0.18356296658021165,-0.20896092899169588,1
1649246823.683996,-0.06097412109375,-0.01153564453125,0.98162841796875,0.9835879551426693,-20.01953125,15.80810546875,20.93505859375,34.572254277238166,-0.18384424360556295,-0.20992405476321663,1
1649246823.6892312,-0.06097412109375,-0.01153564453125,0.98162841796875,0.9835879551426693,-20.6298828125,11.29150390625,27.099609375,32.81381922295142,-0.1841630770577467,-0.21088620921801862,1
1649246823.6944532,-0.04266357421875,-0.02691650390625,0.954345703125,0.9556779791440235,-17.63916015625,5.4931640625,23.49853515625,32.660938090700476,-0.1844337905276916,-0.21184902623873675,1
1649246823.6997325,-0.04266357421875,-0.02691650390625,0.954345703125,0.9556779791440235,-26.06201171875,5.9814453125,27.40478515625,42.55791980897806,-0.1846565628729877,-0.2128126483116514,1
1649246823.7049754,-0.05950927734375,-0.0205078125,0.986572265625,0.9885781505596591,-22.94921875,10.6201171875,38.2080078125,43.06859640144723,-0.1849267751313164,-0.21379006987594734,1
1649246823.710286,-0.05950927734375,-0.0205078125,0.986572265625,0.9885781505596591,-49.37744140625,-57.55615234375,56.5185546875,97.26932166248432,-0.1852426168115926,-0.21477239505242968,1
1649246823.7155533,-0.05950927734375,-0.0205078125,0.986572265625,0.9885781505596591,-54.62646484375,-34.36279296875,24.169921875,30.987711724361642,-0.18555648634355748,-0.21575024712991359,1
1649246823.720788,-0.05950927734375,-0.0205078125,0.986572265625,0.9885781505596591,-19.47021484375,10.19287109375,14.58740234375,29.931506207959295,-0.18586800064804265,-0.21672239841370078,1
1649246823.7260208,-0.07049560546875,0.0443115234375,1.078857421875,1.082065838216201,-23.92578125,5.55419921875,5.2490234375,28.116545466082854,-0.1862080996434088,-0.2176957672993247,1
1649246823.7312558,-0.07049560546875,0.0443115234375,1.078857421875,1.082065838216201,-18.06640625,28.076171875,6.40869140625,47.82870778398899,-0.1865770906661055,-0.21867139115349157,1
1649246823.736495,-0.10015869140625,-0.00311279296875,1.0118408203125,1.0167906857337707,-9.521484375,29.6630859375,1.40380859375,30.69340219473454,-0.18702405940712197,-0.21964990759725184,1
1649246823.7417097,-0.10015869140625,-0.00311279296875,1.0118408203125,1.0167906857337707,-98.20556640625,-132.8125,95.947265625,105.4623213327578,-0.18754740675649373,-0.22062850955987087,1
1649246823.7469678,-0.10015869140625,-0.00311279296875,1.0118408203125,1.0167906857337707,-34.66796875,2.25830078125,67.93212890625,81.95244318821213,-0.18807297491730424,-0.22161401621130322,1
1649246823.752248,-0.10015869140625,-0.00311279296875,1.0118408203125,1.0485824957982468,-33.8134765625,7.568359375,51.20849609375,56.626219397377206,-0.1885982087624143,-0.22260165119019787,1
1649246823.7574966,-0.07452392578125,-0.00823974609375,1.0458984375,1.0485824957982468,-41.80908203125,15.869140625,20.01953125,51.656443817642774,-0.18905912254558643,-0.2235981296728223,1
1649246823.7627292,-0.07635498046875,0.032958984375,1.052490234375,1.0557708421566476,-35.21728515625,15.07568359375,12.939453125,34.81604959002857,-0.18945463836280396,-0.2245903702927649,1
1649246823.767968,-0.07635498046875,0.032958984375,1.052490234375,1.0557708421566476,-28.99169921875,19.71435546875,14.0380859375,39.21346104434957,-0.1898543169736513,-0.22558311284485602,1
1649246823.7732267,-0.07049560546875,-0.085693359375,0.9898681640625,0.996068252910333,-32.958984375,8.544921875,18.49365234375,39.19236530479124,-0.1902408309324528,-0.22658353159974584,1
1649246823.7784607,-0.07049560546875,-0.085693359375,0.9898681640625,0.996068252910333,-27.03857421875,13.12255859375,6.89697265625,35.10423627255988,-0.19060923369397642,-0.22757867317347855,1
1649246823.784202,-0.06170654296875,-0.047607421875,0.9554443359375,0.9586177773950307,-30.94482421875,10.8642578125,16.05224609375,42.00997086936433,-0.19098376353940694,-0.22865972947975144,1
1649246823.789499,-0.06170654296875,-0.047607421875,0.9554443359375,0.9586177773950307,-21.728515625,25.390625,10.009765625,31.107637859837016,-0.19131473909510532,-0.22968499724929897,1
1649246823.7947512,-0.06719970703125,-0.04962158203125,0.9964599609375,0.9999552768898887,-23.5595703125,29.9072265625,12.3291015625,41.414995889268575,-0.1916539770681993,-0.23069284233849865,1
1649246823.8000262,-0.06719970703125,-0.04962158203125,0.9964599609375,0.9999552768898887,-15.68603515625,34.1796875,14.0380859375,45.14068718123915,-0.19200860046112211,-0.23170516613417894,1
1649246823.8052642,-0.06683349609375,-0.05035400390625,1.0111083984375,1.0145651459124496,-21.6064453125,23.01025390625,10.43701171875,38.96228332520475,-0.19235942947125295,-0.23271124113890262,1
1649246823.810489,-0.06683349609375,-0.05035400390625,1.0111083984375,1.0145651459124496,-18.98193359375,33.3251953125,10.8642578125,43.78671638131707,-0.19270942740695318,-0.23371951777327746,1
1649246823.8157837,-0.094482421875,-0.05841064453125,0.99737548828125,1.0035420250603277,-25.20751953125,39.6728515625,19.95849609375,41.79843293610969,-0.19313287984550698,-0.23473234941420038,1
1649246823.8210347,-0.094482421875,-0.05841064453125,0.99737548828125,0.9842638736396977,-27.52685546875,37.41455078125,15.19775390625,46.819813349326104,-0.19363204156252323,-0.23575401163676227,1
1649246823.8262756,-0.09759521484375,-0.08441162109375,0.97576904296875,0.9842638736396977,-18.00537109375,35.64453125,21.30126953125,51.80781126722126,-0.19413587680173805,-0.23677115837620785,1
1649246823.8321226,-0.1116943359375,-0.07672119140625,0.97833251953125,0.98767215444381,-37.353515625,8.72802734375,35.82763671875,54.338636735776724,-0.19468308889190666,-0.23778777118903194,1
1649246823.8388143,-0.1116943359375,-0.07672119140625,0.97833251953125,0.98767215444381,-34.0576171875,7.8125,23.74267578125,43.86530056000708,-0.19548158958787099,-0.2391824111441015,1
1649246823.844106,-0.1138916015625,-0.054931640625,0.985107421875,0.9931895159945229,-20.5078125,13.427734375,6.2255859375,16.32619125377839,-0.1960958821582608,-0.24024871489641617,1
1649246823.8493404,-0.1138916015625,-0.054931640625,0.985107421875,0.9931895159945229,-41.50390625,6.8359375,12.39013671875,42.56820388138952,-0.19669277861248702,-0.2412780013216565,1
1649246823.8546317,-0.1051025390625,-0.08001708984375,1.049560546875,1.057840545612143,-37.2314453125,4.21142578125,20.6298828125,45.23742803835093,-0.19726492068730295,-0.24230725157841593,1
1649246823.85998,-0.1051025390625,-0.08001708984375,1.049560546875,0.904276623097463,-49.560546875,-6.28662109375,21.484375,53.854628738644415,-0.19783196717617102,-0.24337305981208981,1
1649246823.8652124,-0.1263427734375,-0.1226806640625,0.886962890625,0.904276623097463,-14.2822265625,-12.5732421875,25.390625,22.752036480354285,-0.19844022582401522,-0.24441449800623144,1
1649246823.870436,-0.1263427734375,-0.1226806640625,0.886962890625,1.1285136457526892,-0.6103515625,-12.39013671875,3.84521484375,6.3152955540760916,-0.1991006006137468,-0.2454534412418666,1
1649246823.875647,-0.08624267578125,-0.1094970703125,1.119873046875,1.1285136457526892,-38.6962890625,5.4931640625,-1.0986328125,34.86010539658853,-0.19965521379344864,-0.24649375341264648,1
1649246823.8809063,-0.10986328125,-0.0384521484375,0.83770751953125,0.8457555181999558,-28.80859375,-1.52587890625,2.86865234375,37.91152928031232,-0.20017022346291924,-0.24754376723886864,1
1649246823.886128,-0.10986328125,-0.0384521484375,0.83770751953125,0.8457555181999558,-26.7333984375,-12.5732421875,6.89697265625,45.03112445101685,-0.2007437289939844,-0.24859018769254151,1
1649246823.891371,-0.0662841796875,-0.2420654296875,0.86114501953125,0.8969726915520426,-34.0576171875,-1.40380859375,5.9814453125,42.667066788597815,-0.2012046651725541,-0.24964199142450152,1
1649246823.8966067,-0.0662841796875,-0.2420654296875,0.86114501953125,0.8969726915520426,-17.51708984375,-17.578125,0.79345703125,30.97400380519268,-0.2015515809689532,-0.2506959571259979,1
1649246823.9018521,-0.09246826171875,-0.0157470703125,0.99334716796875,0.997765977451752,0.1220703125,-20.6298828125,-4.2724609375,26.276963894818923,-0.20196790689078625,-0.25175418099501484,1
1649246823.9070945,-0.09246826171875,-0.0157470703125,0.99334716796875,0.997765977451752,24.59716796875,-31.1279296875,-6.7138671875,30.7283371743355,-0.20245250334846787,-0.252813899727547,1
1649246823.9123302,-0.09246826171875,-0.0157470703125,0.99334716796875,0.997765977451752,10.498046875,-23.4375,-12.63427734375,25.34811422587123,-0.2029371659446042,-0.25387630322640387,1
1649246823.9175644,-0.09246826171875,-0.0157470703125,0.99334716796875,0.997765977451752,-3.72314453125,-17.76123046875,-3.41796875,15.418113520319263,-0.20342099078698084,-0.25493940405405385,1
1649246823.922811,-0.05474853515625,-0.16387939453125,0.9488525390625,0.9644558045545878,8.544921875,-16.66259765625,-2.13623046875,16.759124740049405,-0.20380713485064916,-0.25600754795211234,1
1649246823.9280498,-0.05474853515625,-0.16387939453125,0.9488525390625,0.9644558045545878,6.28662109375,-2.13623046875,-6.04248046875,14.413216625504823,-0.20409387159452308,-0.2570757062697475,1
1649246823.9332824,-0.10931396484375,-0.106201171875,1.01275634765625,1.0241599736054476,11.1083984375,-8.23974609375,-14.404296875,18.197179158869133,-0.20452328208193649,-0.25814520412041836,1
1649246823.9385912,-0.10931396484375,-0.106201171875,1.01275634765625,1.0241599736054476,11.71875,4.7607421875,-17.822265625,20.40245604479607,-0.20510265101620462,-0.2592307220624621,1
1649246823.9438312,-0.10931396484375,-0.106201171875,1.01275634765625,1.0241599736054476,21.3623046875,-3.11279296875,-8.72802734375,19.326664406088867,-0.20567620801739395,-0.26030837527390704,1
1649246823.9490733,-0.10931396484375,-0.106201171875,1.01275634765625,1.068211144201214,19.83642578125,3.47900390625,-13.61083984375,20.247579412251607,-0.20624926983145997,-0.26138810356815334,1
1649246823.9544454,-0.1329345703125,-0.13970947265625,1.0506591796875,1.068211144201214,17.4560546875,4.638671875,-1.03759765625,26.34315808627886,-0.2068833501325571,-0.26246946926512593,1
1649246823.959873,-0.10784912109375,-0.14373779296875,1.05340576171875,1.0686232661094748,19.47021484375,-0.42724609375,9.09423828125,25.976178159236714,-0.207543132295541,-0.26360505780676385,1
1649246823.9652433,-0.10784912109375,-0.14373779296875,1.05340576171875,1.0686232661094748,10.80322265625,2.5634765625,15.7470703125,29.802348693836045,-0.2081237885504379,-0.26472402658043215,1
1649246823.9706106,-0.10565185546875,-0.148681640625,0.9466552734375,0.9640667775366804,-38.818359375,17.2119140625,13.0615234375,44.23802693611797,-0.20869649369706167,-0.2658421250767659,1
1649246823.975973,-0.10565185546875,-0.148681640625,0.9466552734375,0.9640667775366804,-15.5029296875,7.9345703125,-0.54931640625,13.132207117872357,-0.20926320403668797,-0.2669630806965319,1
1649246823.981357,-0.10565185546875,-0.148681640625,0.9466552734375,0.9640667775366804,-4.82177734375,10.80322265625,2.01416015625,10.447714153595156,-0.2098316020637867,-0.26809042796316507,1
1649246823.9867573,-0.10565185546875,-0.148681640625,0.9466552734375,0.9640667775366804,-13.73291015625,3.96728515625,-7.2021484375,29.000435566919684,-0.21039861467579613,-0.2692180741922901,1
1649246823.9921227,-0.10565185546875,-0.148681640625,0.9466552734375,0.9640667775366804,24.84130859375,-7.32421875,19.10400390625,27.027067401089024,-0.21096887671592413,-0.27035525197406474,1
1649246823.9974933,-0.10565185546875,-0.148681640625,0.9466552734375,0.9640667775366804,21.1181640625,-7.8125,15.31982421875,19.963068540403768,-0.2115361664109514,-0.2714895565066237,1
1649246824.002865,-0.10565185546875,-0.148681640625,0.9466552734375,0.9640667775366804,24.2919921875,-2.50244140625,18.61572265625,28.475631468404945,-0.21210411102947546,-0.27262822186510144,1
1649246824.0082374,-0.10565185546875,-0.148681640625,0.9466552734375,1.1743157146872152,23.681640625,-8.7890625,10.80322265625,30.98717073724953,-0.21267198007990373,-0.27376978816525155,1
1649246824.0141993,-0.0457763671875,-0.0889892578125,1.1700439453125,1.1743157146872152,36.62109375,-7.2021484375,0.48828125,38.9343543978737,-0.21311684496322414,-0.27502066790648666,1
1649246824.0196705,-0.03277587890625,-0.1453857421875,1.12811279296875,1.1379146479104842,34.85107421875,-10.68115234375,8.6669921875,40.53667259854035,-0.21333491746190703,-0.27620456023324175,1
1649246824.025039,-0.03277587890625,-0.1453857421875,1.12811279296875,1.1379146479104842,42.66357421875,-9.21630859375,1.0986328125,40.83151595132547,-0.21351101448090049,-0.27735123117987925,1
1649246824.0304525,-0.03277587890625,-0.1453857421875,1.12811279296875,1.1379146479104842,44.37255859375,-0.91552734375,5.126953125,30.78302523533319,-0.2136883852435858,-0.2785071526360906,1
1649246824.0358307,-0.03277587890625,-0.1453857421875,1.12811279296875,1.1379146479104842,37.353515625,9.09423828125,11.962890625,43.19025513656432,-0.213864396304416,-0.27965516179942107,1
1649246824.0411792,-0.03277587890625,-0.1453857421875,1.12811279296875,1.1379146479104842,50.35400390625,21.728515625,18.00537109375,59.51494238860842,-0.21404043080838164,-0.28080426926044083,1
1649246824.046521,-0.03277587890625,-0.1453857421875,1.12811279296875,1.1379146479104842,40.6494140625,-0.732421875,9.1552734375,45.96012109955071,-0.21421539474249585,-0.2819473251684156,1
1649246824.0518816,-0.07470703125,-0.11956787109375,1.10174560546875,1.1107299381423832,30.70068359375,-0.3662109375,-5.43212890625,35.06978315980877,-0.21450336604902986,-0.2830959608119919,1
1649246824.0578754,-0.07470703125,-0.11956787109375,1.10174560546875,1.0608128061459867,35.09521484375,2.99072265625,3.0517578125,38.68035310231495,-0.21490722500311676,-0.2842566367836807,1
1649246824.0641925,-0.06134033203125,-0.12396240234375,1.0517578125,1.0608128061459867,40.34423828125,1.64794921875,4.57763671875,32.12206689454591,-0.21531170465459581,-0.28553571194199817,1
1649246824.0696378,-0.046142578125,-0.0589599609375,1.02484130859375,1.0275724413927825,33.447265625,-4.45556640625,7.9345703125,32.441836267569045,-0.2156564501929097,-0.286918018657764,1
1649246824.0749037,-0.046142578125,-0.0589599609375,1.02484130859375,1.0275724413927825,31.73828125,-4.21142578125,3.60107421875,38.82632383778041,-0.21590204205131158,-0.28806649427861314,1
1649246824.0801516,-0.0633544921875,-0.076904296875,1.02960205078125,1.0344121255723608,29.1748046875,-11.29150390625,-8.7890625,40.297673256323726,-0.21618914428108837,-0.2891994409657609,1
1649246824.0853899,-0.0633544921875,-0.076904296875,1.02960205078125,1.0344121255723608,36.31591796875,-9.58251953125,-8.9111328125,39.19241283047655,-0.2165215122367954,-0.29033447615706076,1
1649246824.090612,-0.076171875,-0.0732421875,1.03912353515625,1.0444827877406229,33.50830078125,-20.5078125,-2.9296875,40.14665986368161,-0.21688655315665528,-0.2914683957312249,1
1649246824.0959496,-0.076171875,-0.0732421875,1.03912353515625,1.0444827877406229,37.7197265625,-18.49365234375,-6.4697265625,39.29697237704215,-0.21728443790925667,-0.29260234456317213,1
1649246824.1012251,-0.076171875,-0.0732421875,1.03912353515625,1.0444827877406229,38.02490234375,-13.7939453125,-6.103515625,40.53046892365001,-0.2176930012064986,-0.29376888941158885,1
1649246824.1064596,-0.076171875,-0.0732421875,1.03912353515625,1.0183916299713938,33.447265625,-12.87841796875,-10.55908203125,40.468379869572686,-0.2180927383597009,-0.2949123544434024,1
1649246824.1116986,-0.07452392578125,-0.06353759765625,1.013671875,1.0183916299713938,27.83203125,-11.3525390625,-13.12255859375,36.10651244731261,-0.21848734303785022,-0.29605556176313635,1
1649246824.1169393,-0.05584716796875,-0.04852294921875,0.99957275390625,1.0023068757235678,26.18408203125,-12.75634765625,-12.939453125,29.216529027401016,-0.21882894400914665,-0.29720142672539146,1
1649246824.122211,-0.05584716796875,-0.04852294921875,0.99957275390625,1.0023068757235678,31.3720703125,-9.8876953125,-21.66748046875,29.737716166354804,-0.21912303246790543,-0.2983545435839273,1
1649246824.128253,-0.05584716796875,-0.04852294921875,0.99957275390625,1.0023068757235678,35.2783203125,-10.1318359375,-9.33837890625,32.50407175086822,-0.21946102048968896,-0.2996817027026125,1
1649246824.1334858,-0.05584716796875,-0.04852294921875,0.99957275390625,1.0023068757235678,21.728515625,-14.95361328125,-18.5546875,36.7069002063698,-0.21975339131313376,-0.3008313892840294,1
1649246824.1387463,-0.08294677734375,-0.04119873046875,1.01275634765625,1.0169822628649812,20.6298828125,-15.13671875,-9.82666015625,32.359168298375195,-0.2201158872776432,-0.30198022065446006,1
1649246824.143995,-0.08294677734375,-0.04119873046875,1.01275634765625,1.0169822628649812,22.8271484375,-13.916015625,-12.6953125,34.78436340079604,-0.22055517273838632,-0.3031471158361322,1
1649246824.149214,-0.08294677734375,-0.04119873046875,1.01275634765625,1.0169822628649812,21.240234375,-19.775390625,-12.14599609375,34.094240466540164,-0.22098775411723182,-0.3042984761073524,1
1649246824.1545599,-0.08294677734375,-0.04119873046875,1.01275634765625,1.0169822628649812,27.9541015625,-8.7890625,-10.1318359375,33.706606324793604,-0.2214204146002885,-0.3054523035260614,1
1649246824.1600533,-0.05767822265625,-0.0472412109375,1.037109375,1.0397857303755018,21.484375,-22.8271484375,-14.16015625,35.55694688907642,-0.22180801056674682,-0.3066739465469639,1
1649246824.1654377,-0.05767822265625,-0.0472412109375,1.037109375,1.0580884301011226,19.71435546875,-19.71435546875,-15.68603515625,39.652047204374455,-0.2221197584294714,-0.30787365006429884,1
1649246824.170847,-0.04083251953125,-0.0406494140625,1.0565185546875,1.0580884301011226,18.00537109375,-17.7001953125,-17.822265625,34.349835461495914,-0.2223862513055792,-0.3090761350151891,1
1649246824.1762125,-0.03460693359375,-0.03643798828125,1.06658935546875,1.0677725507063713,25.57373046875,-14.2822265625,-25.2685546875,33.55451776996713,-0.22258861367299687,-0.3102697566997103,1
1649246824.1815763,-0.03460693359375,-0.03643798828125,1.06658935546875,1.0677725507063713,23.98681640625,-24.10888671875,-10.55908203125,35.670284217389806,-0.2227742679824587,-0.3114643661271778,1
1649246824.1869626,-0.05126953125,-0.04119873046875,1.084716796875,1.0867089903233484,23.98681640625,-18.37158203125,-14.58740234375,39.22471696363731,-0.2230054972533253,-0.3126646639069025,1
1649246824.1923258,-0.05126953125,-0.04119873046875,1.084716796875,1.0867089903233484,31.3720703125,-17.88330078125,-11.04736328125,35.118188387617664,-0.22328069958166452,-0.3138624415877219,1
1649246824.197745,-0.05126953125,-0.04119873046875,1.084716796875,1.0867089903233484,24.90234375,-19.53125,-15.7470703125,32.60420123861184,-0.2235569898111862,-0.3150664401883654,1
1649246824.203088,-0.05126953125,-0.04119873046875,1.084716796875,1.0867089903233484,28.86962890625,-15.13671875,-13.73291015625,37.91781757340712,-0.22383307223935844,-0.31627102048839534,1
1649246824.20844,-0.05126953125,-0.04119873046875,1.084716796875,1.0867089903233484,24.59716796875,-18.37158203125,-7.14111328125,32.78372047432005,-0.2241068566290778,-0.31746704234646705,1
1649246824.213808,-0.05126953125,-0.04119873046875,1.084716796875,1.0867089903233484,27.2216796875,-19.1650390625,-18.85986328125,31.57647777038046,-0.22438198561576428,-0.31867041087450493,1
1649246824.2191796,-0.0736083984375,-0.05950927734375,1.07977294921875,1.0839138214245017,28.3203125,-7.8125,-7.62939453125,34.52766934985889,-0.2247165323860827,-0.3198735414767521,1
1649246824.2245927,-0.0736083984375,-0.05950927734375,1.07977294921875,1.070588238205238,19.8974609375,-12.6953125,-8.97216796875,22.82502679603901,-0.2251164353438071,-0.3210954776830525,1
1649246824.230008,-0.06903076171875,-0.0582275390625,1.0667724609375,1.070588238205238,21.97265625,-5.92041015625,-12.3291015625,26.56915805622643,-0.22550254319503438,-0.32231525158900703,1
1649246824.2353575,-0.04559326171875,-0.0479736328125,1.06768798828125,1.069737283298776,19.8974609375,-9.21630859375,-11.04736328125,25.370443099373492,-0.22580948320683092,-0.3235237741530683,1
1649246824.2407415,-0.04559326171875,-0.0479736328125,1.06768798828125,1.069737283298776,17.15087890625,-12.3291015625,-14.6484375,27.627427119655234,-0.226054858052521,-0.3247397010118806,1
1649246824.2466667,-0.02618408203125,-0.04541015625,1.08416748046875,1.0854339289650135,19.1650390625,-14.22119140625,-11.474609375,26.065442040421807,-0.22626475819561165,-0.32606242970610294,1
1649246824.2520833,-0.02618408203125,-0.04541015625,1.08416748046875,1.0854339289650135,17.333984375,-20.44677734375,-17.39501953125,31.315615432383012,-0.22640847304137424,-0.32730470857481475,1
1649246824.257587,-0.0238037109375,-0.04046630859375,1.08380126953125,1.0848176485581114,19.04296875,-19.71435546875,-14.70947265625,30.221895210039253,-0.2265424256111146,-0.3285184836434327,1
1649246824.2629344,-0.0238037109375,-0.04046630859375,1.08380126953125,1.0848176485581114,19.53125,-22.8271484375,-11.90185546875,28.51308785216769,-0.22667484047269681,-0.329779058133535,1
1649246824.2681758,-0.037353515625,-0.0399169921875,1.0697021484375,1.0710981924019138,18.5546875,-21.6064453125,-10.92529296875,31.3206708035488,-0.22683520981081529,-0.33096827338546786,1
1649246824.2734492,-0.037353515625,-0.0399169921875,1.0697021484375,1.0625474196959745,21.484375,-24.96337890625,-15.869140625,28.012144639545607,-0.2270322589247371,-0.33216540544995854,1
1649246824.278713,-0.03057861328125,-0.04193115234375,1.061279296875,1.0625474196959745,23.74267578125,-18.85986328125,-10.19287109375,28.456590239302418,-0.22720991593814688,-0.33335334566985464,1
1649246824.2839546,-0.035888671875,-0.04705810546875,1.0792236328125,1.0808450914355254,21.1181640625,-18.5546875,-17.76123046875,30.609419907852885,-0.22738507322355872,-0.3345513128213068,1
1649246824.2891884,-0.035888671875,-0.04705810546875,1.0792236328125,1.0808450914355254,15.869140625,-9.82666015625,-10.07080078125,33.102894010541874,-0.2275729745379067,-0.33574231837656004,1
1649246824.2945886,-0.05511474609375,-0.0538330078125,1.10009765625,1.1027921296662677,22.705078125,-12.26806640625,-14.09912109375,35.30724207800586,-0.22781094619858777,-0.3369331359335702,1
1649246824.300204,-0.05511474609375,-0.0538330078125,1.10009765625,1.1027921296662677,26.18408203125,-11.29150390625,-15.7470703125,31.093024336431807,-0.22811847049888456,-0.33820511289792127,1
1649246824.3055422,-0.069580078125,-0.0479736328125,1.093505859375,1.0967670314175963,29.4189453125,-8.30078125,-9.765625,32.10437615087157,-0.22846404693700606,-0.33947047544261877,1
1649246824.310779,-0.069580078125,-0.0479736328125,1.093505859375,1.0967670314175963,30.1513671875,-6.89697265625,-10.43701171875,36.19204640529998,-0.22882869377644965,-0.34066873762552474,1
1649246824.3160186,-0.07635498046875,-0.0399169921875,1.0623779296875,1.065865992887839,36.865234375,-4.0283203125,-6.591796875,34.147574461619705,-0.2292109713816899,-0.34186857478589566,1
1649246824.3212607,-0.07635498046875,-0.0399169921875,1.0623779296875,1.065865992887839,32.958984375,-12.26806640625,-5.4931640625,36.58959623651976,-0.22961126894369954,-0.3430712823438737,1
1649246824.3264894,-0.07635498046875,-0.0399169921875,1.0623779296875,1.065865992887839,25.87890625,-14.7705078125,-3.2958984375,34.298988311933975,-0.2300103468078305,-0.34427241429097444,1
1649246824.3317158,-0.07635498046875,-0.0399169921875,1.0623779296875,1.065865992887839,33.3251953125,-18.49365234375,-11.16943359375,32.41794286575875,-0.23040989798755618,-0.3454770603458108,1
1649246824.3369472,-0.06060791015625,0.00567626953125,0.9730224609375,0.9749247398123448,28.3203125,-10.43701171875,-9.09423828125,28.756628205387262,-0.23076787291938672,-0.3466824239326103,1
1649246824.3421836,-0.06060791015625,0.00567626953125,0.9730224609375,0.9400789016629123,22.5830078125,-13.427734375,-7.4462890625,31.554054225565306,-0.2310852249574964,-0.34789158971262674,1
1649246824.3474185,-0.041748046875,0.0025634765625,0.93914794921875,0.9400789016629123,20.20263671875,-12.451171875,-1.5869140625,23.557119291423962,-0.23135306625044905,-0.34910168117599055,1
1649246824.3535419,-0.04705810546875,0.016845703125,0.9254150390625,0.9267638520826824,14.58740234375,-13.7939453125,-12.0849609375,19.892030688746374,-0.23162526680971496,-0.3505207603485592,1
1649246824.36007,-0.04705810546875,0.016845703125,0.9254150390625,0.9267638520826824,17.15087890625,-11.5966796875,-17.4560546875,24.0469995338036,-0.23187100810173433,-0.3517309681576958,1
1649246824.3655274,-0.05108642578125,0.0120849609375,0.920654296875,0.9221497728321385,19.47021484375,-15.0146484375,-6.591796875,25.095842347852557,-0.23220034407859202,-0.3532882163319488,1
1649246824.3707724,-0.05108642578125,0.0120849609375,0.920654296875,0.9221497728321385,19.1650390625,-9.765625,-2.3193359375,29.667732283030944,-0.23247104353504255,-0.3545193290016209,1
1649246824.3759933,-0.0216064453125,0.00201416015625,0.94976806640625,0.9500159342270234,18.12744140625,-12.5732421875,-13.61083984375,28.479686717429296,-0.2326610815798631,-0.3557353051807164,1
1649246824.3812072,-0.0216064453125,0.00201416015625,0.94976806640625,0.9500159342270234,23.25439453125,-16.90673828125,-6.65283203125,29.47555729951495,-0.2327736907027429,-0.3569481886677142,1
1649246824.386416,-0.0216064453125,0.00201416015625,0.94976806640625,0.9500159342270234,22.88818359375,-14.46533203125,-18.06640625,28.81874293631486,-0.23288631527975667,-0.35816182562760024,1
1649246824.3916762,-0.0216064453125,0.00201416015625,0.94976806640625,0.9590889141494939,24.59716796875,-11.65771484375,-5.7373046875,35.398759475486365,-0.23299990316445474,-0.359386437758325,1
1649246824.3969107,0.02471923828125,0.0465087890625,0.9576416015625,0.9590889141494939,26.06201171875,-5.55419921875,-2.13623046875,28.612992216870232,-0.23299179753666976,-0.36060049480078343,1
1649246824.4021454,0.0589599609375,0.03240966796875,0.9539794921875,0.9563490655016695,24.90234375,-9.27734375,-7.50732421875,25.578172976123184,-0.23277237002912443,-0.3618218433718389,1
1649246824.407396,0.0589599609375,0.03240966796875,0.9539794921875,0.9563490655016695,15.7470703125,-7.6904296875,-16.6015625,28.025772635522618,-0.2324619600403821,-0.3630465166998327,1
1649246824.412762,0.08001708984375,0.03790283203125,0.9510498046875,0.9551623371653553,23.25439453125,-2.44140625,-23.98681640625,28.215543385217693,-0.2320996154085151,-0.3642577338906518,1
1649246824.4183223,0.08001708984375,0.03790283203125,0.9510498046875,0.9551623371653553,23.98681640625,-7.8125,-16.54052734375,27.3423875741774,-0.23165375373355346,-0.36554976946916723,1
1649246824.4236457,0.076904296875,0.05712890625,0.94976806640625,0.9545875354163317,25.7568359375,-1.64794921875,-16.41845703125,25.845055663627654,-0.23122664722177433,-0.36680963109514997,1
1649246824.4288893,0.076904296875,0.05712890625,0.94976806640625,0.9545875354163317,27.4658203125,-4.08935546875,-19.10400390625,33.93889486140538,-0.23082335980870994,-0.3680211300595354,1
1649246824.4341676,0.06591796875,0.07598876953125,0.92962646484375,0.9350533866239336,25.45166015625,-3.2958984375,-16.4794921875,32.175428108147464,-0.23044629072683165,-0.36923894104205013,1
1649246824.4394064,0.06591796875,0.07598876953125,0.92962646484375,0.9350533866239336,34.66796875,-0.42724609375,-12.6953125,34.19919138699782,-0.23010080439416924,-0.370445840540995,1
1649246824.4446502,0.0692138671875,0.0948486328125,0.88568115234375,0.8934304260402162,32.77587890625,-3.84521484375,-19.34814453125,35.02221517920995,-0.22974656814039918,-0.37165129008900527,1
1649246824.4498944,0.0692138671875,0.0948486328125,0.88568115234375,0.8934304260402162,20.93505859375,-6.7138671875,-24.35302734375,36.803389456525096,-0.22938392300420674,-0.37285409413866333,1
1649246824.455133,0.0849609375,0.1058349609375,0.8441162109375,0.8549570617434556,22.3388671875,-5.18798828125,-26.55029296875,40.23480831764728,-0.2289798959318432,-0.37405527219248,1
1649246824.46045,0.0849609375,0.1058349609375,0.8441162109375,0.8316185962201668,25.57373046875,-2.5634765625,-21.54541015625,30.601751592313377,-0.22853156399651198,-0.375262397515608,1
1649246824.4656954,0.090087890625,0.116455078125,0.8184814453125,0.8316185962201668,22.76611328125,-1.52587890625,-19.775390625,37.64048527319133,-0.2280690579136717,-0.3764688069918903,1
1649246824.4709983,0.087158203125,0.13037109375,0.7957763671875,0.8110815008565322,16.845703125,-5.06591796875,-22.03369140625,29.261758739366197,-0.2275989714471507,-0.37767731528280335,1
1649246824.4767678,0.087158203125,0.13037109375,0.7957763671875,0.8110815008565322,20.56884765625,-3.90625,-17.7001953125,35.44487624460109,-0.22710486139840214,-0.37896619989123914,1
1649246824.4820552,0.060791015625,0.13238525390625,0.77655029296875,0.7900960451378002,14.83154296875,-6.34765625,-29.78515625,35.5131261561565,-0.2267064257102902,-0.3801883395820046,1
1649246824.4873197,0.060791015625,0.13238525390625,0.77655029296875,0.7900960451378002,11.29150390625,-1.40380859375,-26.30615234375,29.144015485686136,-0.22638623072271002,-0.3813815915453718,1
1649246824.4925606,0.060791015625,0.13238525390625,0.77655029296875,0.7900960451378002,8.85009765625,-0.3662109375,-25.7568359375,30.701472308301934,-0.22606754308071686,-0.38256755154950955,1
1649246824.497792,0.060791015625,0.13238525390625,0.77655029296875,0.7900960451378002,10.009765625,5.31005859375,-24.47509765625,24.95345312391277,-0.22574959461780963,-0.3837490959189321,1
1649246824.5030298,0.03424072265625,0.134033203125,0.78515625,0.7972500633690989,7.14111328125,-3.35693359375,-27.40478515625,29.651906610914313,-0.22550062452501152,-0.3849313094716576,1
1649246824.508269,0.03424072265625,0.134033203125,0.78515625,0.7972500633690989,13.427734375,-0.42724609375,-32.77587890625,35.21940069604486,-0.22532141664123628,-0.3861110577025538,1
1649246824.5135076,0.0443115234375,0.13623046875,0.8404541015625,0.852575714267317,11.962890625,5.0048828125,-30.57861328125,30.94969942412223,-0.2251154800906079,-0.38729194590628513,1
1649246824.5187461,0.0443115234375,0.13623046875,0.8404541015625,0.852575714267317,6.2255859375,12.63427734375,-34.5458984375,26.518774507553065,-0.2248837752995314,-0.38846846812179653,1
1649246824.5241354,0.05950927734375,0.146484375,0.8653564453125,0.8796822174245662,3.7841796875,5.92041015625,-31.8603515625,35.205911951864806,-0.224608400312718,-0.389660704176619,1
1649246824.5297658,0.05950927734375,0.146484375,0.8653564453125,0.8670196886335017,6.8359375,6.16455078125,-26.9775390625,32.94830149135286,-0.22428034266340546,-0.39089800189217494,1
1649246824.5351026,0.0465087890625,0.135498046875,0.8551025390625,0.8670196886335017,6.34765625,2.9296875,-28.80859375,33.50941251428751,-0.2239865897645359,-0.3921400516232415,1
1649246824.5403721,0.03131103515625,0.151611328125,0.891357421875,0.9047012928420237,7.32421875,4.33349609375,-30.517578125,33.799592069839015,-0.2237812931634835,-0.3933213087816636,1
1649246824.5456028,0.03131103515625,0.151611328125,0.891357421875,0.9047012928420237,13.5498046875,4.21142578125,-37.9638671875,31.40316620675116,-0.22361742603970924,-0.39449204524774106,1
1649246824.5508323,0.030029296875,0.158203125,0.87835693359375,0.8929954592397364,8.4228515625,4.5166015625,-23.62060546875,29.583230869133676,-0.2234570664804778,-0.39566081408530834,1
1649246824.5561075,0.030029296875,0.158203125,0.87835693359375,0.8929954592397364,11.41357421875,3.7841796875,-34.48486328125,33.79038769543317,-0.22329995748441434,-0.3968294985838432,1
1649246824.5613441,0.0120849609375,0.1856689453125,0.86334228515625,0.8831641437881934,13.5498046875,-4.150390625,-29.47998046875,32.738406677333536,-0.22318882065155776,-0.39800775391316556,1
1649246824.5665793,0.0120849609375,0.1856689453125,0.86334228515625,0.8831641437881934,13.427734375,6.65283203125,-33.99658203125,29.84625381431998,-0.22312551606592024,-0.39917671690345186,1
1649246824.5718353,-0.02178955078125,0.208740234375,0.85968017578125,0.8849278358157006,15.13671875,-0.9765625,-31.06689453125,31.563438647070303,-0.22315088247705717,-0.4003433461157895,1
1649246824.577085,-0.02178955078125,0.208740234375,0.85968017578125,0.8849278358157006,12.87841796875,-0.1220703125,-39.48974609375,38.09923771173234,-0.2232659057190176,-0.40152162433637734,1
1649246824.5823145,-0.02178955078125,0.208740234375,0.85968017578125,0.8849278358157006,13.36669921875,0.06103515625,-26.42822265625,31.181379317739758,-0.2233797548833536,-0.4026884734312571,1
1649246824.587558,-0.02178955078125,0.208740234375,0.85968017578125,0.8849278358157006,5.06591796875,-2.50244140625,-30.09033203125,34.59573662144141,-0.22349405601562466,-0.4038605531836307,1
1649246824.5927956,-0.05291748046875,0.1717529296875,0.84942626953125,0.8682305661315868,9.3994140625,3.7841796875,-34.423828125,31.51099175593077,-0.22368956443096977,-0.40503083340409923,1
1649246824.5980322,-0.05291748046875,0.1717529296875,0.84942626953125,0.87866301031721,7.26318359375,-1.77001953125,-26.7333984375,33.08882393344547,-0.22396667346765753,-0.4062029374777674,1
1649246824.603286,-0.078369140625,0.17138671875,0.85821533203125,0.87866301031721,9.3994140625,8.23974609375,-23.681640625,32.66259191159245,-0.2243115341043449,-0.40738046422640667,1
1649246824.6085198,-0.078369140625,0.17138671875,0.85821533203125,0.87866301031721,4.69970703125,-3.60107421875,-32.89794921875,29.003004580267174,-0.2247217557960539,-0.4085556920925512,1
1649246824.6138055,-0.078369140625,0.17138671875,0.85821533203125,0.87866301031721,7.14111328125,-2.86865234375,-34.7900390625,30.933505966075455,-0.22513636838266393,-0.4097456811557576,1
1649246824.6190286,-0.0611572265625,0.1688232421875,0.8741455078125,0.8923966955857074,5.67626953125,-2.685546875,-39.12353515625,32.78752693614369,-0.22550119307561545,-0.410923979661663,1
1649246824.6242619,-0.0611572265625,0.1688232421875,0.8741455078125,0.8923966955857074,2.74658203125,0.0,-25.2685546875,30.908326062866436,-0.22582174219860462,-0.41210676033386373,1
1649246824.6294966,-0.049072265625,0.17486572265625,0.8836669921875,0.9021382717163519,3.72314453125,-1.708984375,-24.5361328125,24.702127444968472,-0.22610870180506026,-0.41328326745353744,1
1649246824.6347363,-0.049072265625,0.17486572265625,0.8836669921875,0.9021382717163519,6.53076171875,-8.6669921875,-28.80859375,26.571331239062793,-0.22636613118083915,-0.4144700917455044,1
1649246824.6400075,-0.0303955078125,0.19354248046875,0.89886474609375,0.9199676137839624,-1.15966796875,-1.28173828125,-27.89306640625,29.849498854157165,-0.2265757752393256,-0.41566499850346456,1
1649246824.6452408,-0.0303955078125,0.19354248046875,0.89886474609375,0.9199676137839624,-2.5634765625,-2.99072265625,-26.2451171875,32.55354560110865,-0.22673492339527002,-0.41685174560771765,1
1649246824.650555,0.002197265625,0.1951904296875,0.90985107421875,0.9305552692209265,4.57763671875,5.37109375,-28.62548828125,27.929436742550575,-0.22680950749054318,-0.4180513777555656,1
1649246824.655833,0.002197265625,0.1951904296875,0.90985107421875,0.9305552692209265,4.21142578125,-2.685546875,-28.4423828125,23.850380556801163,-0.2267979703246965,-0.4192422544163805,1
1649246824.6613598,0.002197265625,0.1951904296875,0.90985107421875,0.9305552692209265,7.2021484375,-6.65283203125,-28.80859375,33.666905879517955,-0.22678593024465954,-0.4204849777367199,1
1649246824.6667802,0.002197265625,0.1951904296875,0.90985107421875,0.936672584662346,10.25390625,-4.2724609375,-28.4423828125,23.689976434418153,-0.22677406146976864,-0.42170995513133436,1
1649246824.672158,0.0208740234375,0.193359375,0.916259765625,0.936672584662346,5.9814453125,-4.39453125,-40.95458984375,37.04285934610693,-0.22671164864004822,-0.4229367321150153,1
1649246824.6775358,0.01043701171875,0.18603515625,0.9217529296875,0.9403969767933479,1.953125,-9.6435546875,-33.3251953125,42.72857647597797,-0.22662744194531115,-0.4241559248444414,1
1649246824.6829436,0.01043701171875,0.18603515625,0.9217529296875,0.9403969767933479,3.96728515625,-5.615234375,-32.77587890625,43.48334041109,-0.2265709607527242,-0.42538219472669603,1
1649246824.688335,-0.01318359375,0.16680908203125,0.90966796875,0.9249296677921107,1.03759765625,-4.7607421875,-36.80419921875,42.089084344018374,-0.2265783266775543,-0.42659790592855673,1
1649246824.6936986,-0.01318359375,0.16680908203125,0.90966796875,0.9249296677921107,2.50244140625,-6.28662109375,-37.65869140625,39.19835308736593,-0.2266494135983521,-0.42781982481832725,1
1649246824.6990595,-0.03460693359375,0.1904296875,0.89959716796875,0.9201826831404215,0.48828125,-2.9296875,-34.912109375,34.50710963163201,-0.226777415475226,-0.42903428066077753,1
1649246824.7049718,-0.03460693359375,0.1904296875,0.89959716796875,0.9201826831404215,-2.8076171875,2.3193359375,-36.80419921875,37.82215223780468,-0.22697943964158185,-0.4303587240723108,1
1649246824.710443,-0.03460693359375,0.1904296875,0.89959716796875,0.9201826831404215,-0.06103515625,2.44140625,-30.45654296875,34.45719731628926,-0.22717148017545696,-0.43161880949515347,1
1649246824.715862,-0.03460693359375,0.1904296875,0.89959716796875,0.9201826831404215,-5.31005859375,2.86865234375,-38.330078125,34.4057509120184,-0.22735876817023382,-0.43284873728617657,1
1649246824.7212243,-0.03460693359375,0.1904296875,0.89959716796875,0.9201826831404215,-0.79345703125,2.5634765625,-41.748046875,34.606126240995906,-0.2275446040002862,-0.434070130472197,1
1649246824.7265978,-0.03460693359375,0.1904296875,0.89959716796875,0.9201826831404215,6.40869140625,12.02392578125,-35.400390625,29.54946349862359,-0.22773045633221045,-0.4352926301686889,1
1649246824.7319643,-0.03460693359375,0.1904296875,0.89959716796875,0.9201826831404215,-2.01416015625,5.2490234375,-34.97314453125,41.46214796692544,-0.22791617664915975,-0.43651525853107964,1
1649246824.7373211,-0.047607421875,0.15216064453125,0.89227294921875,0.9064051766562654,-6.53076171875,9.46044921875,-33.50830078125,30.680594877458937,-0.22813645751739386,-0.4377371822406543,1
1649246824.7427394,-0.047607421875,0.15216064453125,0.89227294921875,0.9064051766562654,-4.0283203125,6.28662109375,-31.06689453125,30.854101575481845,-0.22839442019176204,-0.43897404743422347,1
1649246824.7481196,-0.04559326171875,0.16900634765625,0.9111328125,0.9277957173195077,-2.685546875,4.638671875,-24.10888671875,20.744142745513276,-0.22864532606763532,-0.44020444568263084,1
1649246824.7536566,-0.04559326171875,0.16900634765625,0.9111328125,0.9277957173195077,-10.1318359375,7.080078125,-25.7568359375,31.987371862437335,-0.22888964649609989,-0.44143034109261337,1
1649246824.7597053,-0.0421142578125,0.1644287109375,0.91168212890625,0.9273482171539976,1.28173828125,11.8408203125,-23.8037109375,26.87009933057937,-0.2291525513282977,-0.4428033306356096,1
1649246824.7650294,-0.0421142578125,0.1644287109375,0.91168212890625,0.9178684118909282,-6.89697265625,6.65283203125,-30.3955078125,34.96946944654877,-0.22938928377698176,-0.4440921071341988,1
1649246824.7703743,-0.03076171875,0.166259765625,0.90216064453125,0.9178684118909282,-4.69970703125,7.9345703125,-24.0478515625,26.517158967460706,-0.22958421375369653,-0.4453197777247894,1
1649246824.7756119,-0.03076171875,0.166259765625,0.90216064453125,0.9178684118909282,-0.30517578125,15.0146484375,-22.216796875,30.38073567604674,-0.22974533803062513,-0.44652271996778725,1
1649246824.7808468,-0.03076171875,0.166259765625,0.90216064453125,0.9178684118909282,-1.46484375,10.6201171875,-25.2685546875,41.057519860387394,-0.229906388965901,-0.44772595801075177,1
1649246824.786084,-0.0106201171875,0.1761474609375,0.89923095703125,0.9163825778391589,-3.96728515625,15.93017578125,-26.4892578125,28.112040288922625,-0.2300147148926044,-0.44892990120605053,1
1649246824.7913282,-0.0106201171875,0.1761474609375,0.89923095703125,0.9163825778391589,-2.685546875,13.85498046875,-30.45654296875,32.3401673954245,-0.23007041962409858,-0.45013652249046,1
1649246824.7965674,-0.05438232421875,0.16021728515625,0.88970947265625,0.9056544381741497,0.9765625,12.0849609375,-27.099609375,40.723486875849474,-0.23024063184857368,-0.4513418705716492,1
1649246824.8017998,-0.05438232421875,0.16021728515625,0.88970947265625,0.9056544381741497,3.7841796875,6.7138671875,-29.541015625,34.89551283086611,-0.2305253987578908,-0.45254824525624643,1
1649246824.8070383,-0.0802001953125,0.14410400390625,0.8873291015625,0.9025247751445326,1.5869140625,5.4931640625,-29.541015625,29.546185506101597,-0.23087769767880673,-0.4537560678883987,1
1649246824.8122728,-0.0802001953125,0.14410400390625,0.8873291015625,0.9025247751445326,6.591796875,7.4462890625,-22.216796875,31.00736118794595,-0.23129765695921378,-0.4549661324561929,1
1649246824.8175044,-0.09979248046875,0.13201904296875,0.88275146484375,0.8981301217241725,-5.126953125,1.52587890625,-32.77587890625,27.378128783085657,-0.2317683762157685,-0.45617714894853495,1
1649246824.8236263,-0.09979248046875,0.13201904296875,0.88275146484375,0.8981301217241725,-10.31494140625,-4.7607421875,-30.57861328125,25.2938259377175,-0.23238055418914882,-0.4576008120854128,1
1649246824.828844,-0.13238525390625,0.12396240234375,0.8865966796875,0.9049564658476978,-5.4931640625,-0.244140625,-25.45166015625,27.267759179478123,-0.23298611552309012,-0.4588145721474677,1
1649246824.8340592,-0.13238525390625,0.12396240234375,0.8865966796875,0.9303097665962502,-5.31005859375,-5.31005859375,-15.13671875,20.267807871624814,-0.23367747375596082,-0.46003310557513155,1
1649246824.8392763,-0.12945556640625,0.12469482421875,0.91278076171875,0.9303097665962502,-11.53564453125,-1.3427734375,-26.0009765625,22.350037497077228,-0.23435971505386988,-0.4612526033554327,1
